RECORDING_SESSION_LABEL	AVERAGE_FIXATION_DURATION	SACCADE_COUNT	VISITED_INTEREST_AREA_COUNT	hunger	recorder_trial	resp	rt	rtype	sim	sub	tar	tcateg	time	tired	tnum	tutra	tuttime
53_mg	488.00	1	1	.	.	.	.	.	.	.	.	.	.	.	.	.	.
53_mg	1014.00	0	1	.	.	.	.	.	.	.	.	.	.	.	.	.	.
53_mg	144.00	4	1	.	.	.	.	.	.	.	.	.	.	.	.	.	.
53_mg	203.29	13	7	1	126	space	3.27391587233	cr	False	53_mg	False	Utility_Vehicles	1.89	1	1	NA	NA
53_mg	104.40	4	1	.	.	.	.	.	.	.	.	.	.	.	.	.	.
53_mg	104.71	13	7	1	90	space	2.30200376449	cr	False	53_mg	False	Utility_Vehicles	8.79	1	2	NA	NA
53_mg	1016.00	0	1	.	.	.	.	.	.	.	.	.	.	.	.	.	.
53_mg	186.44	8	5	1	64	return	1.96836423688	hi	False	53_mg	True	Utility_Vehicles	14.53	1	3	NA	NA
53_mg	283.33	2	1	.	.	.	.	.	.	.	.	.	.	.	.	.	.
53_mg	199.50	7	5	1	269	space	1.98502005963	cr	False	53_mg	False	Utility_Vehicles	19.94	1	4	NA	NA
53_mg	210.67	3	1	.	.	.	.	.	.	.	.	.	.	.	.	.	.
53_mg	129.50	12	7	1	180	space	2.78560141346	cr	False	53_mg	False	Utility_Vehicles	25.37	1	5	0	28.21
53_mg	.	1	0	.	.	.	.	.	.	.	.	.	.	.	.	.	.
53_mg	81.14	13	7	1	123	space	3.2026281883	cr	False	53_mg	False	Utility_Vehicles	36.53	1	6	NA	NA
53_mg	78.75	7	1	.	.	.	.	.	.	.	.	.	.	.	.	.	.
53_mg	77.25	16	7	1	60	space	3.24043817801	cr	False	53_mg	False	Utility_Vehicles	43.17	1	7	NA	NA
53_mg	112.40	4	1	.	.	.	.	.	.	.	.	.	.	.	.	.	.
53_mg	104.86	6	4	1	18	return	1.00805171335	fa	True	53_mg	True	Utility_Vehicles	49.94	1	8	NA	NA
53_mg	78.67	5	1	.	.	.	.	.	.	.	.	.	.	.	.	.	.
53_mg	101.71	6	4	1	88	space	1.17206239467	cr	False	53_mg	False	Utility_Vehicles	54.61	1	9	NA	NA
53_mg	138.50	4	1	.	.	.	.	.	.	.	.	.	.	.	.	.	.
53_mg	88.55	11	5	1	97	space	1.87963960465	cr	False	53_mg	False	Utility_Vehicles	60.37	1	10	0	30.42
53_mg	145.50	4	1	.	.	.	.	.	.	.	.	.	.	.	.	.	.
53_mg	90.53	15	6	1	272	space	2.43038215034	cr	False	53_mg	False	Utility_Vehicles	77.18	1	11	NA	NA
53_mg	176.40	4	1	.	.	.	.	.	.	.	.	.	.	.	.	.	.
53_mg	127.27	10	5	1	205	space	1.89653478685	cr	False	53_mg	False	Utility_Vehicles	83.07	1	12	NA	NA
53_mg	149.33	2	1	.	.	.	.	.	.	.	.	.	.	.	.	.	.
53_mg	84.33	12	7	1	173	space	2.42040493159	cr	False	53_mg	False	Utility_Vehicles	88.42	1	13	NA	NA
53_mg	234.67	3	1	.	.	.	.	.	.	.	.	.	.	.	.	.	.
53_mg	200.62	12	9	1	233	space	2.95816488675	cr	False	53_mg	False	Utility_Vehicles	94.29	1	14	0	23.81
53_mg	93.20	5	1	.	.	.	.	.	.	.	.	.	.	.	.	.	.
53_mg	42.25	7	3	1	109	return	1.97656550404	hi	False	53_mg	True	Utility_Vehicles	104.82	1	15	NA	NA
53_mg	74.00	1	1	.	.	.	.	.	.	.	.	.	.	.	.	.	.
53_mg	217.14	7	7	1	110	return	2.30633605988	hi	False	53_mg	True	Utility_Vehicles	111.76	1	16	NA	NA
53_mg	1014.00	0	1	.	.	.	.	.	.	.	.	.	.	.	.	.	.
53_mg	192.67	8	7	1	240	space	1.95618073287	cr	False	53_mg	False	Utility_Vehicles	117.51	1	17	NA	NA
53_mg	420.00	1	1	.	.	.	.	.	.	.	.	.	.	.	.	.	.
53_mg	190.50	4	3	1	281	return	0.78849461989	hi	False	53_mg	True	Utility_Vehicles	122.9	1	18	0	22.89
53_mg	408.00	1	1	.	.	.	.	.	.	.	.	.	.	.	.	.	.
53_mg	163.60	10	6	1	9	space	1.98365501454	cr	False	53_mg	False	Utility_Vehicles	131.82	1	19	NA	NA
53_mg	220.00	4	1	.	.	.	.	.	.	.	.	.	.	.	.	.	.
53_mg	203.80	9	6	1	157	return	2.29849218234	hi	False	53_mg	True	Utility_Vehicles	137.44	1	20	NA	NA
53_mg	1014.00	0	1	.	.	.	.	.	.	.	.	.	.	.	.	.	.
53_mg	188.25	7	7	1	61	space	1.72240613023	cr	False	53_mg	False	Utility_Vehicles	143.18	1	21	NA	NA
53_mg	172.50	4	1	.	.	.	.	.	.	.	.	.	.	.	.	.	.
53_mg	159.20	9	6	1	27	return	1.85037067719	hi	False	53_mg	True	Utility_Vehicles	148.5	1	22	NA	NA
53_mg	238.00	3	1	.	.	.	.	.	.	.	.	.	.	.	.	.	.
53_mg	165.25	7	6	1	100	space	1.52232988714	cr	False	53_mg	False	Utility_Vehicles	153.82	1	23	0	26.98
53_mg	271.33	2	1	.	.	.	.	.	.	.	.	.	.	.	.	.	.
53_mg	152.67	5	5	1	163	return	1.03879638505	hi	False	53_mg	True	Utility_Vehicles	162.0	1	24	NA	NA
53_mg	326.67	2	1	.	.	.	.	.	.	.	.	.	.	.	.	.	.
53_mg	181.33	5	5	1	282	space	1.21773422306	cr	False	53_mg	False	Utility_Vehicles	166.48	1	25	NA	NA
53_mg	1016.00	0	1	.	.	.	.	.	.	.	.	.	.	.	.	.	.
53_mg	173.75	7	6	1	170	space	1.64194141375	cr	False	53_mg	False	Utility_Vehicles	171.16	1	26	NA	NA
53_mg	492.00	1	1	.	.	.	.	.	.	.	.	.	.	.	.	.	.
53_mg	179.71	6	7	1	176	space	1.46132182842	cr	False	53_mg	False	Utility_Vehicles	176.24	1	27	NA	NA
53_mg	419.00	1	1	.	.	.	.	.	.	.	.	.	.	.	.	.	.
53_mg	142.55	10	8	1	207	space	1.95661949739	cr	False	53_mg	False	Utility_Vehicles	181.26	1	28	0	24.68
53_mg	1016.00	0	1	.	.	.	.	.	.	.	.	.	.	.	.	.	.
53_mg	160.80	9	8	1	244	space	1.88927006378	cr	False	53_mg	False	Utility_Vehicles	189.41	1	29	NA	NA
53_mg	268.00	2	1	.	.	.	.	.	.	.	.	.	.	.	.	.	.
53_mg	164.40	9	8	1	237	space	1.93948935438	cr	False	53_mg	False	Utility_Vehicles	194.75	1	30	NA	NA
53_mg	998.00	0	1	.	.	.	.	.	.	.	.	.	.	.	.	.	.
53_mg	188.75	8	5	1	85	space	1.73943693721	cr	False	53_mg	False	Utility_Vehicles	200.12	1	31	NA	NA
53_mg	425.00	1	1	.	.	.	.	.	.	.	.	.	.	.	.	.	.
53_mg	181.33	8	7	1	236	space	1.93986397202	cr	False	53_mg	False	Utility_Vehicles	205.35	1	32	NA	NA
53_mg	329.33	2	1	.	.	.	.	.	.	.	.	.	.	.	.	.	.
53_mg	166.91	10	8	1	234	space	2.16242020589	cr	False	53_mg	False	Utility_Vehicles	210.75	1	33	NA	NA
53_mg	1006.00	0	1	.	.	.	.	.	.	.	.	.	.	.	.	.	.
53_mg	268.44	9	6	1	101	space	2.73991345678	cr	False	53_mg	False	Utility_Vehicles	216.49	1	34	0	33.27
53_mg	202.00	4	1	.	.	.	.	.	.	.	.	.	.	.	.	.	.
53_mg	141.86	13	9	1	189	space	2.53288809303	cr	False	53_mg	False	Utility_Vehicles	226.5	1	35	NA	NA
53_mg	272.67	2	1	.	.	.	.	.	.	.	.	.	.	.	.	.	.
53_mg	196.17	12	8	1	32	space	2.78477153642	cr	False	53_mg	False	Utility_Vehicles	232.77	1	36	NA	NA
53_mg	328.67	2	1	.	.	.	.	.	.	.	.	.	.	.	.	.	.
53_mg	181.38	12	9	1	288	space	2.86906746967	cr	False	53_mg	False	Utility_Vehicles	239.01	1	37	NA	NA
53_mg	321.33	2	1	.	.	.	.	.	.	.	.	.	.	.	.	.	.
53_mg	156.89	8	7	1	154	space	1.79568896472	cr	False	53_mg	False	Utility_Vehicles	245.58	1	38	NA	NA
53_mg	232.50	3	1	.	.	.	.	.	.	.	.	.	.	.	.	.	.
53_mg	170.86	6	6	1	297	space	1.35643841996	cr	False	53_mg	False	Utility_Vehicles	250.81	1	39	0	29.4
53_mg	195.50	4	1	.	.	.	.	.	.	.	.	.	.	.	.	.	.
53_mg	184.60	9	8	1	219	space	2.13958355866	cr	False	53_mg	False	Utility_Vehicles	259.82	1	40	NA	NA
53_mg	220.50	4	1	.	.	.	.	.	.	.	.	.	.	.	.	.	.
53_mg	189.27	10	5	1	44	space	2.29357230174	cr	False	53_mg	False	Utility_Vehicles	265.39	1	41	NA	NA
53_mg	192.00	3	1	.	.	.	.	.	.	.	.	.	.	.	.	.	.
53_mg	154.83	11	9	1	4	space	2.18988349097	cr	False	53_mg	False	Utility_Vehicles	271.56	1	42	NA	NA
53_mg	232.50	3	1	.	.	.	.	.	.	.	.	.	.	.	.	.	.
53_mg	192.35	16	10	1	259	space	3.80923751381	cr	False	53_mg	False	Utility_Vehicles	277.29	1	43	NA	NA
53_mg	324.67	2	1	.	.	.	.	.	.	.	.	.	.	.	.	.	.
53_mg	248.75	7	6	1	235	return	2.19099011587	hi	False	53_mg	True	Utility_Vehicles	284.58	1	44	0	31.09
53_mg	152.40	4	1	.	.	.	.	.	.	.	.	.	.	.	.	.	.
53_mg	377.71	6	4	1	222	space	2.81112269824	mi	False	53_mg	True	Utility_Vehicles	293.37	1	45	NA	NA
53_mg	171.60	4	1	.	.	.	.	.	.	.	.	.	.	.	.	.	.
53_mg	278.00	3	3	1	42	return	0.872057079745	hi	False	53_mg	True	Utility_Vehicles	299.63	1	46	NA	NA
53_mg	229.50	4	1	.	.	.	.	.	.	.	.	.	.	.	.	.	.
53_mg	153.27	10	8	1	124	space	2.15834376484	cr	False	53_mg	False	Utility_Vehicles	303.99	1	47	NA	NA
53_mg	231.50	3	1	.	.	.	.	.	.	.	.	.	.	.	.	.	.
53_mg	170.00	9	6	1	280	space	1.97270642914	cr	False	53_mg	False	Utility_Vehicles	309.66	1	48	NA	NA
53_mg	483.00	1	1	.	.	.	.	.	.	.	.	.	.	.	.	.	.
53_mg	228.29	7	6	1	45	space	1.87271870871	cr	False	53_mg	False	Utility_Vehicles	315.11	1	49	0	27.33
53_mg	418.00	1	1	.	.	.	.	.	.	.	.	.	.	.	.	.	.
53_mg	206.00	6	5	1	38	space	1.60612107627	cr	False	53_mg	False	Utility_Vehicles	323.44	1	50	NA	NA
53_mg	326.00	2	1	.	.	.	.	.	.	.	.	.	.	.	.	.	.
53_mg	189.64	10	7	1	48	space	2.3854119053	cr	False	53_mg	False	Utility_Vehicles	328.49	1	51	NA	NA
53_mg	312.67	2	1	.	.	.	.	.	.	.	.	.	.	.	.	.	.
53_mg	184.12	16	11	1	117	space	3.66097506887	cr	False	53_mg	False	Utility_Vehicles	334.33	1	52	NA	NA
53_mg	278.00	2	1	.	.	.	.	.	.	.	.	.	.	.	.	.	.
53_mg	189.82	10	8	1	254	space	2.42462432856	cr	False	53_mg	False	Utility_Vehicles	341.45	1	53	0	23.89
53_mg	1014.00	0	1	.	.	.	.	.	.	.	.	.	.	.	.	.	.
53_mg	192.18	10	8	1	292	space	2.43972816394	cr	False	53_mg	False	Utility_Vehicles	349.68	1	54	NA	NA
53_mg	184.00	4	1	.	.	.	.	.	.	.	.	.	.	.	.	.	.
53_mg	167.14	6	5	1	135	space	1.44632466009	cr	False	53_mg	False	Utility_Vehicles	355.98	1	55	NA	NA
53_mg	204.00	3	1	.	.	.	.	.	.	.	.	.	.	.	.	.	.
53_mg	225.83	11	9	1	213	space	3.08782584313	cr	False	53_mg	False	Utility_Vehicles	360.9	1	56	NA	NA
53_mg	229.50	3	1	.	.	.	.	.	.	.	.	.	.	.	.	.	.
53_mg	175.00	7	5	1	49	space	1.57586575346	cr	False	53_mg	False	Utility_Vehicles	367.62	1	57	0	22.98
53_mg	164.40	4	1	.	.	.	.	.	.	.	.	.	.	.	.	.	.
53_mg	163.38	15	9	1	289	return	3.1070768644	hi	False	53_mg	True	Utility_Vehicles	376.75	1	58	NA	NA
53_mg	1014.00	0	1	.	.	.	.	.	.	.	.	.	.	.	.	.	.
53_mg	155.27	10	7	1	155	space	1.9932304906	cr	False	53_mg	False	Utility_Vehicles	383.32	1	59	NA	NA
53_mg	1000.00	0	1	.	.	.	.	.	.	.	.	.	.	.	.	.	.
53_mg	192.22	8	6	1	58	space	1.95661693142	cr	False	53_mg	False	Utility_Vehicles	388.76	1	60	0	17.57
53_mg	205.50	4	1	.	.	.	.	.	.	.	.	.	.	.	.	.	.
53_mg	206.40	9	8	1	294	space	2.35054094123	cr	False	53_mg	False	Utility_Vehicles	397.88	1	61	NA	NA
53_mg	178.00	3	1	.	.	.	.	.	.	.	.	.	.	.	.	.	.
53_mg	193.60	9	8	1	216	space	2.15647874086	cr	False	53_mg	False	Utility_Vehicles	403.67	1	62	NA	NA
53_mg	503.00	1	1	.	.	.	.	.	.	.	.	.	.	.	.	.	.
53_mg	194.33	12	9	1	74	space	2.74109669129	cr	False	53_mg	False	Utility_Vehicles	409.32	1	63	NA	NA
53_mg	1008.00	0	1	.	.	.	.	.	.	.	.	.	.	.	.	.	.
53_mg	176.60	9	6	1	5	space	2.05024641554	cr	False	53_mg	False	Utility_Vehicles	415.74	1	64	NA	NA
53_mg	402.00	1	1	.	.	.	.	.	.	.	.	.	.	.	.	.	.
53_mg	238.33	11	8	1	106	space	3.17354180448	cr	False	53_mg	False	Utility_Vehicles	421.23	1	65	0	30.52
53_mg	200.50	3	1	.	.	.	.	.	.	.	.	.	.	.	.	.	.
53_mg	216.67	5	4	1	81	return	1.42212370079	hi	False	53_mg	True	Utility_Vehicles	430.24	1	66	NA	NA
53_mg	186.40	4	1	.	.	.	.	.	.	.	.	.	.	.	.	.	.
53_mg	140.80	4	3	1	102	return	0.774015391595	hi	False	53_mg	True	Utility_Vehicles	435.11	1	67	NA	NA
53_mg	324.67	2	1	.	.	.	.	.	.	.	.	.	.	.	.	.	.
53_mg	158.00	6	7	1	167	space	1.28182426328	cr	False	53_mg	False	Utility_Vehicles	439.45	1	68	NA	NA
53_mg	479.00	1	1	.	.	.	.	.	.	.	.	.	.	.	.	.	.
53_mg	183.43	7	6	1	112	space	1.5557591964	cr	False	53_mg	False	Utility_Vehicles	444.17	1	69	0	18.96
53_mg	187.60	4	1	.	.	.	.	.	.	.	.	.	.	.	.	.	.
53_mg	174.22	8	7	1	296	space	1.82832541881	cr	False	53_mg	False	Utility_Vehicles	451.71	1	70	NA	NA
53_mg	414.00	1	1	.	.	.	.	.	.	.	.	.	.	.	.	.	.
53_mg	152.55	10	7	1	218	space	1.98598482838	cr	False	53_mg	False	Utility_Vehicles	457.23	1	71	NA	NA
53_mg	207.50	3	1	.	.	.	.	.	.	.	.	.	.	.	.	.	.
53_mg	208.00	4	4	1	69	space	1.1490281751	cr	False	53_mg	False	Utility_Vehicles	462.66	1	72	NA	NA
53_mg	812.00	0	1	.	.	.	.	.	.	.	.	.	.	.	.	.	.
53_mg	171.00	3	3	1	34	return	0.739007336553	hi	False	53_mg	True	Utility_Vehicles	467.26	1	73	NA	NA
53_mg	422.00	1	1	.	.	.	.	.	.	.	.	.	.	.	.	.	.
53_mg	176.00	7	6	1	263	space	1.62242574082	cr	False	53_mg	False	Utility_Vehicles	471.44	1	74	0	25.14
53_mg	1014.00	0	1	.	.	.	.	.	.	.	.	.	.	.	.	.	.
53_mg	183.50	8	5	1	57	space	1.77392961807	cr	False	53_mg	False	Utility_Vehicles	479.33	1	75	NA	NA
53_mg	1032.00	0	1	.	.	.	.	.	.	.	.	.	.	.	.	.	.
53_mg	183.43	7	6	1	68	space	1.47540664527	cr	False	53_mg	False	Utility_Vehicles	484.82	1	76	NA	NA
53_mg	498.00	1	1	.	.	.	.	.	.	.	.	.	.	.	.	.	.
53_mg	209.60	9	8	1	144	space	2.40648066526	cr	False	53_mg	False	Utility_Vehicles	489.75	1	77	NA	NA
53_mg	415.00	1	1	.	.	.	.	.	.	.	.	.	.	.	.	.	.
53_mg	164.17	11	8	1	300	return	2.27810851083	fa	True	53_mg	True	Utility_Vehicles	495.64	1	78	NA	NA
53_mg	190.00	3	1	.	.	.	.	.	.	.	.	.	.	.	.	.	.
53_mg	230.00	8	7	1	162	space	2.35934482235	cr	False	53_mg	False	Utility_Vehicles	501.44	1	79	NA	NA
53_mg	1014.00	0	1	.	.	.	.	.	.	.	.	.	.	.	.	.	.
53_mg	184.00	11	8	1	143	space	2.58555596077	cr	False	53_mg	False	Utility_Vehicles	507.25	1	80	0	33.94
53_mg	408.00	1	1	.	.	.	.	.	.	.	.	.	.	.	.	.	.
53_mg	190.77	12	9	1	153	space	2.83259723289	cr	False	53_mg	False	Utility_Vehicles	515.74	1	81	NA	NA
53_mg	154.00	4	1	.	.	.	.	.	.	.	.	.	.	.	.	.	.
53_mg	200.00	11	8	1	230	space	2.80835631926	cr	False	53_mg	False	Utility_Vehicles	522.26	1	82	NA	NA
53_mg	1028.00	0	1	.	.	.	.	.	.	.	.	.	.	.	.	.	.
53_mg	175.78	8	8	1	8	space	1.8402406057	cr	False	53_mg	False	Utility_Vehicles	528.81	1	83	NA	NA
53_mg	1014.00	0	1	.	.	.	.	.	.	.	.	.	.	.	.	.	.
53_mg	281.50	3	4	1	77	return	1.18858882412	fa	False	53_mg	False	Utility_Vehicles	534.09	1	84	0	23.0
53_mg	428.00	1	1	.	.	.	.	.	.	.	.	.	.	.	.	.	.
53_mg	205.85	12	10	1	183	space	3.03581007401	cr	False	53_mg	False	Utility_Vehicles	541.98	1	85	NA	NA
53_mg	136.80	4	1	.	.	.	.	.	.	.	.	.	.	.	.	.	.
53_mg	162.18	10	7	1	171	space	2.08975318121	cr	False	53_mg	False	Utility_Vehicles	548.46	1	86	NA	NA
53_mg	1018.00	0	1	.	.	.	.	.	.	.	.	.	.	.	.	.	.
53_mg	196.57	13	10	1	224	space	3.19898794586	cr	False	53_mg	False	Utility_Vehicles	554.02	1	87	NA	NA
53_mg	1014.00	0	1	.	.	.	.	.	.	.	.	.	.	.	.	.	.
53_mg	172.18	11	8	1	290	space	2.28582446126	cr	False	53_mg	False	Utility_Vehicles	560.69	1	88	NA	NA
53_mg	1014.00	0	1	.	.	.	.	.	.	.	.	.	.	.	.	.	.
53_mg	214.36	11	9	1	175	space	2.7403206976	cr	False	53_mg	False	Utility_Vehicles	566.46	1	89	0	30.85
53_mg	499.00	1	1	.	.	.	.	.	.	.	.	.	.	.	.	.	.
53_mg	199.07	14	8	1	150	space	3.60904727253	cr	False	53_mg	False	Utility_Vehicles	575.37	1	90	NA	NA
53_mg	328.00	2	1	.	.	.	.	.	.	.	.	.	.	.	.	.	.
53_mg	182.40	15	10	1	274	space	3.30271341198	cr	False	53_mg	False	Utility_Vehicles	582.43	1	91	NA	NA
53_mg	181.00	3	1	.	.	.	.	.	.	.	.	.	.	.	.	.	.
53_mg	182.91	10	7	1	86	space	2.32310148218	cr	False	53_mg	False	Utility_Vehicles	589.18	1	92	NA	NA
53_mg	207.00	3	1	.	.	.	.	.	.	.	.	.	.	.	.	.	.
53_mg	170.80	10	6	1	140	space	2.1060934015	cr	False	53_mg	False	Utility_Vehicles	595.52	1	93	0	25.73
53_mg	219.00	4	1	.	.	.	.	.	.	.	.	.	.	.	.	.	.
53_mg	155.85	13	8	1	127	space	2.46955022059	cr	False	53_mg	False	Utility_Vehicles	603.57	1	94	NA	NA
53_mg	188.00	4	1	.	.	.	.	.	.	.	.	.	.	.	.	.	.
53_mg	228.00	10	9	1	115	space	2.60000953043	cr	False	53_mg	False	Utility_Vehicles	610.53	1	95	NA	NA
53_mg	270.00	2	1	.	.	.	.	.	.	.	.	.	.	.	.	.	.
53_mg	212.40	10	6	1	225	space	2.45635356283	cr	False	53_mg	False	Utility_Vehicles	616.59	1	96	0	18.99
53_mg	205.50	4	1	.	.	.	.	.	.	.	.	.	.	.	.	.	.
53_mg	175.17	11	9	1	1	space	2.50626421539	cr	False	53_mg	False	Utility_Vehicles	624.81	1	97	NA	NA
53_mg	324.67	2	1	.	.	.	.	.	.	.	.	.	.	.	.	.	.
53_mg	140.60	9	7	1	202	space	1.72469525662	cr	False	53_mg	False	Utility_Vehicles	630.78	1	98	NA	NA
53_mg	425.00	1	1	.	.	.	.	.	.	.	.	.	.	.	.	.	.
53_mg	169.14	13	9	1	93	space	2.88583948987	cr	False	53_mg	False	Utility_Vehicles	635.93	1	99	NA	NA
53_mg	1012.00	0	1	.	.	.	.	.	.	.	.	.	.	.	.	.	.
53_mg	174.00	7	5	1	151	space	1.68090934586	cr	False	53_mg	False	Utility_Vehicles	642.26	1	100	0	22.58
53_mg	1016.00	0	1	.	.	.	.	.	.	.	.	.	.	.	.	.	.
53_mg	178.62	12	10	1	23	space	2.74036321783	cr	False	53_mg	False	Utility_Vehicles	649.81	1	101	NA	NA
53_mg	208.50	3	1	.	.	.	.	.	.	.	.	.	.	.	.	.	.
53_mg	473.00	1	1	1	273	return	0.888768252044	fa	True	53_mg	True	Utility_Vehicles	656.0	1	102	NA	NA
53_mg	496.00	1	1	.	.	.	.	.	.	.	.	.	.	.	.	.	.
53_mg	191.40	10	9	1	14	space	2.27313108137	cr	False	53_mg	False	Utility_Vehicles	660.35	1	103	NA	NA
53_mg	748.00	2	1	.	.	.	.	.	.	.	.	.	.	.	.	.	.
53_mg	162.36	11	8	1	158	space	2.18518684147	cr	False	53_mg	False	Utility_Vehicles	666.09	1	104	NA	NA
53_mg	1012.00	0	1	.	.	.	.	.	.	.	.	.	.	.	.	.	.
53_mg	171.00	3	2	1	249	return	0.684067570488	hi	False	53_mg	True	Utility_Vehicles	671.71	1	105	0	26.05
53_mg	1000.00	0	1	.	.	.	.	.	.	.	.	.	.	.	.	.	.
53_mg	207.50	4	4	1	99	return	0.889610225393	fa	True	53_mg	True	Utility_Vehicles	677.95	1	106	NA	NA
53_mg	419.00	1	1	.	.	.	.	.	.	.	.	.	.	.	.	.	.
53_mg	161.33	5	4	1	247	space	1.11780001939	cr	False	53_mg	False	Utility_Vehicles	682.32	1	107	NA	NA
53_mg	1006.00	0	1	.	.	.	.	.	.	.	.	.	.	.	.	.	.
53_mg	161.20	9	6	1	210	space	1.935061022	cr	False	53_mg	False	Utility_Vehicles	687.22	1	108	NA	NA
53_mg	187.00	4	1	.	.	.	.	.	.	.	.	.	.	.	.	.	.
53_mg	149.56	8	7	1	260	space	1.59088198264	cr	False	53_mg	False	Utility_Vehicles	692.6	1	109	NA	NA
53_mg	1014.00	0	1	.	.	.	.	.	.	.	.	.	.	.	.	.	.
53_mg	159.50	11	10	1	177	space	2.25644116907	cr	False	53_mg	False	Utility_Vehicles	697.65	1	110	0	25.4
53_mg	177.20	4	1	.	.	.	.	.	.	.	.	.	.	.	.	.	.
53_mg	245.14	6	3	1	164	return	1.8894951276	hi	False	53_mg	True	Utility_Vehicles	706.01	1	111	NA	NA
53_mg	1014.00	0	1	.	.	.	.	.	.	.	.	.	.	.	.	.	.
53_mg	174.22	8	8	1	13	space	1.81905601488	cr	False	53_mg	False	Utility_Vehicles	711.34	1	112	NA	NA
53_mg	324.00	2	1	.	.	.	.	.	.	.	.	.	.	.	.	.	.
53_mg	324.50	3	2	1	200	return	1.33458853455	fa	True	53_mg	True	Utility_Vehicles	716.59	1	113	NA	NA
53_mg	836.00	0	1	.	.	.	.	.	.	.	.	.	.	.	.	.	.
53_mg	167.64	10	8	1	298	space	2.23521809012	cr	False	53_mg	False	Utility_Vehicles	721.38	1	114	0	21.41
53_mg	245.00	3	1	.	.	.	.	.	.	.	.	.	.	.	.	.	.
53_mg	186.00	11	8	1	293	return	2.96631337027	hi	False	53_mg	True	Utility_Vehicles	729.07	1	115	NA	NA
53_mg	268.00	2	1	.	.	.	.	.	.	.	.	.	.	.	.	.	.
53_mg	191.27	10	8	1	96	space	2.41868982796	cr	False	53_mg	False	Utility_Vehicles	735.48	1	116	NA	NA
53_mg	329.33	2	1	.	.	.	.	.	.	.	.	.	.	.	.	.	.
53_mg	180.80	9	8	1	131	space	2.05319827062	cr	False	53_mg	False	Utility_Vehicles	741.33	1	117	NA	NA
53_mg	1008.00	0	1	.	.	.	.	.	.	.	.	.	.	.	.	.	.
53_mg	200.00	12	10	1	36	space	2.80243208224	cr	False	53_mg	False	Utility_Vehicles	746.92	1	118	0	24.12
53_mg	1012.00	0	1	.	.	.	.	.	.	.	.	.	.	.	.	.	.
53_mg	171.00	9	8	1	133	space	1.95999362197	cr	False	53_mg	False	Utility_Vehicles	755.15	1	119	NA	NA
53_mg	1014.00	0	1	.	.	.	.	.	.	.	.	.	.	.	.	.	.
53_mg	156.00	9	8	1	130	space	1.71829596628	cr	False	53_mg	False	Utility_Vehicles	760.56	1	120	NA	NA
53_mg	501.00	1	1	.	.	.	.	.	.	.	.	.	.	.	.	.	.
53_mg	186.00	3	3	1	56	return	0.767422194476	fa	True	53_mg	True	Utility_Vehicles	765.72	1	121	NA	NA
53_mg	1016.00	0	1	.	.	.	.	.	.	.	.	.	.	.	.	.	.
53_mg	178.00	10	9	1	284	space	2.25918958697	cr	False	53_mg	False	Utility_Vehicles	769.92	1	122	NA	NA
53_mg	1012.00	0	1	.	.	.	.	.	.	.	.	.	.	.	.	.	.
53_mg	154.50	7	6	1	128	space	1.47466474102	cr	False	53_mg	False	Utility_Vehicles	775.64	1	123	0	25.43
53_mg	1012.00	0	1	.	.	.	.	.	.	.	.	.	.	.	.	.	.
53_mg	185.33	8	6	1	253	space	1.92264329031	cr	False	53_mg	False	Utility_Vehicles	782.68	1	124	NA	NA
53_mg	326.67	2	1	.	.	.	.	.	.	.	.	.	.	.	.	.	.
53_mg	163.80	9	6	1	92	space	1.96838623006	cr	False	53_mg	False	Utility_Vehicles	788.07	1	125	NA	NA
53_mg	329.33	2	1	.	.	.	.	.	.	.	.	.	.	.	.	.	.
53_mg	152.00	11	9	1	251	space	2.17249126226	cr	False	53_mg	False	Utility_Vehicles	793.46	1	126	NA	NA
53_mg	1000.00	0	1	.	.	.	.	.	.	.	.	.	.	.	.	.	.
53_mg	205.50	3	2	1	187	return	0.834119895997	hi	False	53_mg	True	Utility_Vehicles	799.34	1	127	0	20.92
53_mg	436.00	1	1	.	.	.	.	.	.	.	.	.	.	.	.	.	.
53_mg	141.40	9	6	1	179	return	2.1564057967	hi	False	53_mg	True	Utility_Vehicles	806.43	1	128	NA	NA
53_mg	372.00	2	0	.	.	.	.	.	.	.	.	.	.	.	.	.	.
53_mg	182.00	4	3	1	262	return	0.951316201827	fa	True	53_mg	True	Utility_Vehicles	812.06	1	129	NA	NA
53_mg	1010.00	0	1	.	.	.	.	.	.	.	.	.	.	.	.	.	.
53_mg	175.00	11	10	1	152	space	2.43898662628	cr	False	53_mg	False	Utility_Vehicles	816.49	1	130	NA	NA
53_mg	1014.00	0	1	.	.	.	.	.	.	.	.	.	.	.	.	.	.
53_mg	181.43	7	5	1	12	space	1.47346537811	cr	False	53_mg	False	Utility_Vehicles	822.36	1	131	0	20.88
53_mg	240.00	3	1	.	.	.	.	.	.	.	.	.	.	.	.	.	.
53_mg	164.86	7	4	1	182	space	1.36780707561	cr	False	53_mg	False	Utility_Vehicles	829.45	1	132	NA	NA
53_mg	1014.00	0	1	.	.	.	.	.	.	.	.	.	.	.	.	.	.
53_mg	189.67	5	6	1	17	space	1.27813050401	cr	False	53_mg	False	Utility_Vehicles	834.26	1	133	NA	NA
53_mg	183.60	4	1	.	.	.	.	.	.	.	.	.	.	.	.	.	.
53_mg	191.78	9	8	1	181	space	2.03948843799	cr	False	53_mg	False	Utility_Vehicles	838.99	1	134	NA	NA
53_mg	201.50	3	1	.	.	.	.	.	.	.	.	.	.	.	.	.	.
53_mg	162.18	10	8	1	84	space	2.09658573777	cr	False	53_mg	False	Utility_Vehicles	844.48	1	135	0	20.68
53_mg	429.00	1	1	.	.	.	.	.	.	.	.	.	.	.	.	.	.
53_mg	176.67	8	7	1	103	space	1.82266033505	cr	False	53_mg	False	Utility_Vehicles	851.87	1	136	NA	NA
53_mg	211.00	3	1	.	.	.	.	.	.	.	.	.	.	.	.	.	.
53_mg	178.55	10	7	1	51	space	2.27297969477	cr	False	53_mg	False	Utility_Vehicles	857.14	1	137	NA	NA
53_mg	178.50	3	1	.	.	.	.	.	.	.	.	.	.	.	.	.	.
53_mg	157.64	10	7	1	89	space	2.05390168674	cr	False	53_mg	False	Utility_Vehicles	862.86	1	138	0	16.51
53_mg	1014.00	0	1	.	.	.	.	.	.	.	.	.	.	.	.	.	.
53_mg	181.09	10	7	1	134	space	2.27272164111	cr	False	53_mg	False	Utility_Vehicles	870.47	1	139	NA	NA
53_mg	1010.00	0	1	.	.	.	.	.	.	.	.	.	.	.	.	.	.
53_mg	199.69	12	8	1	188	space	3.00691576418	cr	False	53_mg	False	Utility_Vehicles	877.94	1	140	NA	NA
53_mg	1012.00	0	1	.	.	.	.	.	.	.	.	.	.	.	.	.	.
53_mg	254.55	11	10	1	206	space	3.1298632939	cr	False	53_mg	False	Utility_Vehicles	884.41	1	141	1	20.54
53_mg	.	1	0	.	.	.	.	.	.	.	.	.	.	.	.	.	.
53_mg	.	1	0	1	22	return	1.19345995312	fa	True	53_mg	True	Utility_Vehicles	893.5	1	142	NA	NA
53_mg	41.00	5	1	.	.	.	.	.	.	.	.	.	.	.	.	.	.
53_mg	111.50	9	4	1	46	space	2.39160409296	cr	False	53_mg	False	Utility_Vehicles	900.77	1	143	NA	NA
53_mg	49.43	8	1	.	.	.	.	.	.	.	.	.	.	.	.	.	.
53_mg	120.00	9	6	1	43	space	2.80239799275	cr	False	53_mg	False	Utility_Vehicles	906.76	1	144	NA	NA
53_mg	50.80	4	1	.	.	.	.	.	.	.	.	.	.	.	.	.	.
53_mg	117.67	7	4	1	192	space	2.23914607707	cr	False	53_mg	False	Utility_Vehicles	913.2	1	145	NA	NA
53_mg	53.50	4	1	.	.	.	.	.	.	.	.	.	.	.	.	.	.
53_mg	81.50	16	5	1	256	space	3.04046347021	cr	False	53_mg	False	Utility_Vehicles	924.38	1	146	2	37.38
53_mg	91.33	3	1	.	.	.	.	.	.	.	.	.	.	.	.	.	.
53_mg	54.00	12	4	1	119	space	2.44026003301	cr	False	53_mg	False	Utility_Vehicles	934.69	1	147	NA	NA
53_mg	250.67	2	1	.	.	.	.	.	.	.	.	.	.	.	.	.	.
53_mg	164.83	12	6	1	165	space	2.8013481836	cr	False	53_mg	False	Utility_Vehicles	947.5	1	148	NA	NA
53_mg	1014.00	0	1	.	.	.	.	.	.	.	.	.	.	.	.	.	.
53_mg	179.47	15	9	1	16	space	3.17173652869	cr	False	53_mg	False	Utility_Vehicles	953.73	1	149	NA	NA
53_mg	1000.00	0	1	.	.	.	.	.	.	.	.	.	.	.	.	.	.
53_mg	199.50	7	7	1	95	space	1.83079928817	cr	False	53_mg	False	Utility_Vehicles	960.34	1	150	0	31.17
53_mg	1012.00	0	1	.	.	.	.	.	.	.	.	.	.	.	.	.	.
53_mg	202.86	6	5	1	264	return	1.53470766445	fa	True	53_mg	True	Utility_Vehicles	968.01	1	151	NA	NA
53_mg	1012.00	0	1	.	.	.	.	.	.	.	.	.	.	.	.	.	.
53_mg	185.78	8	6	1	246	space	1.88408443192	cr	False	53_mg	False	Utility_Vehicles	973.0	1	152	NA	NA
53_mg	1014.00	0	1	.	.	.	.	.	.	.	.	.	.	.	.	.	.
53_mg	198.40	9	6	1	211	space	2.30187876977	cr	True	53_mg	True	Utility_Vehicles	978.35	1	153	NA	NA
53_mg	276.00	2	1	.	.	.	.	.	.	.	.	.	.	.	.	.	.
53_mg	140.77	12	7	1	82	space	2.23086160223	cr	False	53_mg	False	Utility_Vehicles	984.09	1	154	NA	NA
53_mg	324.00	2	1	.	.	.	.	.	.	.	.	.	.	.	.	.	.
53_mg	201.45	10	7	1	136	space	2.5739607751	cr	False	53_mg	False	Utility_Vehicles	990.15	1	155	1	28.17
53_mg	1014.00	0	1	.	.	.	.	.	.	.	.	.	.	.	.	.	.
53_mg	234.00	8	6	1	20	return	2.30759407132	hi	False	53_mg	True	Utility_Vehicles	999.67	1	156	NA	NA
53_mg	432.00	1	1	.	.	.	.	.	.	.	.	.	.	.	.	.	.
53_mg	171.80	9	8	1	75	space	2.01187999774	cr	False	53_mg	False	Utility_Vehicles	1005.44	1	157	NA	NA
53_mg	1014.00	0	1	.	.	.	.	.	.	.	.	.	.	.	.	.	.
53_mg	169.47	14	11	1	228	space	3.02763409901	cr	False	53_mg	False	Utility_Vehicles	1010.9	1	158	NA	NA
53_mg	1012.00	0	1	.	.	.	.	.	.	.	.	.	.	.	.	.	.
53_mg	228.00	3	4	1	268	return	0.958605850581	hi	False	53_mg	True	Utility_Vehicles	1017.57	1	159	NA	NA
53_mg	830.00	1	1	.	.	.	.	.	.	.	.	.	.	.	.	.	.
53_mg	166.50	11	9	1	33	space	2.33956009918	cr	False	53_mg	False	Utility_Vehicles	1021.97	1	160	NA	NA
53_mg	1012.00	0	1	.	.	.	.	.	.	.	.	.	.	.	.	.	.
53_mg	303.60	9	7	1	267	space	3.30275849806	cr	False	53_mg	False	Utility_Vehicles	1027.76	1	161	0	34.85
53_mg	1014.00	0	1	.	.	.	.	.	.	.	.	.	.	.	.	.	.
53_mg	196.73	11	9	1	104	space	2.66887026391	cr	False	53_mg	False	Utility_Vehicles	1036.35	1	162	NA	NA
53_mg	1016.00	0	1	.	.	.	.	.	.	.	.	.	.	.	.	.	.
53_mg	180.91	10	9	1	21	space	2.30633899232	cr	False	53_mg	False	Utility_Vehicles	1042.46	1	163	NA	NA
53_mg	183.20	4	1	.	.	.	.	.	.	.	.	.	.	.	.	.	.
53_mg	178.17	12	8	1	226	space	2.47313767928	cr	False	53_mg	False	Utility_Vehicles	1048.47	1	164	NA	NA
53_mg	1012.00	0	1	.	.	.	.	.	.	.	.	.	.	.	.	.	.
53_mg	177.50	11	9	1	227	space	2.47281254642	cr	False	53_mg	False	Utility_Vehicles	1054.41	1	165	NA	NA
53_mg	1012.00	0	1	.	.	.	.	.	.	.	.	.	.	.	.	.	.
53_mg	175.11	9	8	1	28	space	1.85978267045	cr	False	53_mg	False	Utility_Vehicles	1060.33	1	166	0	29.32
53_mg	1012.00	0	1	.	.	.	.	.	.	.	.	.	.	.	.	.	.
53_mg	165.56	8	4	1	25	space	1.72354134632	cr	False	53_mg	False	Utility_Vehicles	1067.32	1	167	NA	NA
53_mg	1014.00	0	1	.	.	.	.	.	.	.	.	.	.	.	.	.	.
53_mg	175.17	11	9	1	37	space	2.49000610312	cr	False	53_mg	False	Utility_Vehicles	1072.49	1	168	NA	NA
53_mg	435.00	1	1	.	.	.	.	.	.	.	.	.	.	.	.	.	.
53_mg	227.20	4	4	1	53	return	1.22464118997	fa	True	53_mg	True	Utility_Vehicles	1078.46	1	169	NA	NA
53_mg	1014.00	0	1	.	.	.	.	.	.	.	.	.	.	.	.	.	.
53_mg	271.33	3	3	1	91	return	0.84312904696	hi	False	53_mg	True	Utility_Vehicles	1083.29	1	170	0	20.28
53_mg	1014.00	0	1	.	.	.	.	.	.	.	.	.	.	.	.	.	.
53_mg	191.50	7	8	1	255	space	1.80584799394	cr	False	53_mg	False	Utility_Vehicles	1089.31	1	171	NA	NA
53_mg	1012.00	0	1	.	.	.	.	.	.	.	.	.	.	.	.	.	.
53_mg	241.25	7	6	1	62	return	2.08956807171	hi	False	53_mg	True	Utility_Vehicles	1094.56	1	172	NA	NA
53_mg	1014.00	0	1	.	.	.	.	.	.	.	.	.	.	.	.	.	.
53_mg	192.60	9	9	1	78	space	2.2230796722	cr	False	53_mg	False	Utility_Vehicles	1100.13	1	173	NA	NA
53_mg	474.00	2	1	.	.	.	.	.	.	.	.	.	.	.	.	.	.
53_mg	239.00	5	3	1	287	return	1.63153972616	hi	False	53_mg	True	Utility_Vehicles	1105.8	1	174	0	21.58
53_mg	184.40	4	1	.	.	.	.	.	.	.	.	.	.	.	.	.	.
53_mg	188.67	8	8	1	111	space	1.93944866693	cr	False	53_mg	False	Utility_Vehicles	1114.93	1	175	NA	NA
53_mg	209.50	3	1	.	.	.	.	.	.	.	.	.	.	.	.	.	.
53_mg	208.50	3	3	1	65	return	0.847624458605	fa	True	53_mg	True	Utility_Vehicles	1120.31	1	176	NA	NA
53_mg	160.00	3	1	.	.	.	.	.	.	.	.	.	.	.	.	.	.
53_mg	107.40	9	7	1	39	space	2.18523815897	cr	False	53_mg	False	Utility_Vehicles	1124.63	1	177	NA	NA
53_mg	330.00	2	1	.	.	.	.	.	.	.	.	.	.	.	.	.	.
53_mg	186.17	11	8	1	108	space	2.61166189838	cr	False	53_mg	False	Utility_Vehicles	1130.27	1	178	NA	NA
53_mg	890.00	1	1	.	.	.	.	.	.	.	.	.	.	.	.	.	.
53_mg	193.25	8	7	1	159	space	1.8181799521	cr	False	53_mg	False	Utility_Vehicles	1136.34	1	179	0	28.73
53_mg	1012.00	0	1	.	.	.	.	.	.	.	.	.	.	.	.	.	.
53_mg	180.40	9	4	1	277	space	2.11846714671	cr	False	53_mg	False	Utility_Vehicles	1144.27	1	180	NA	NA
53_mg	1016.00	0	1	.	.	.	.	.	.	.	.	.	.	.	.	.	.
53_mg	177.85	12	10	1	50	space	2.73573328106	cr	False	53_mg	False	Utility_Vehicles	1149.82	1	181	NA	NA
53_mg	1010.00	0	1	.	.	.	.	.	.	.	.	.	.	.	.	.	.
53_mg	185.07	14	9	1	266	space	3.24011781026	cr	False	53_mg	False	Utility_Vehicles	1155.99	1	182	NA	NA
53_mg	1014.00	0	1	.	.	.	.	.	.	.	.	.	.	.	.	.	.
53_mg	244.00	3	3	1	209	return	0.753123676986	hi	False	53_mg	True	Utility_Vehicles	1162.7	1	183	NA	NA
53_mg	1014.00	0	1	.	.	.	.	.	.	.	.	.	.	.	.	.	.
53_mg	199.85	12	8	1	63	space	2.9901998266	cr	False	53_mg	False	Utility_Vehicles	1166.92	1	184	0	29.13
53_mg	499.00	1	1	.	.	.	.	.	.	.	.	.	.	.	.	.	.
53_mg	169.60	10	6	1	54	space	2.10624845355	cr	False	53_mg	False	Utility_Vehicles	1175.69	1	185	NA	NA
53_mg	1012.00	0	1	.	.	.	.	.	.	.	.	.	.	.	.	.	.
53_mg	157.56	8	9	1	283	space	1.66758182849	cr	False	53_mg	False	Utility_Vehicles	1181.24	1	186	NA	NA
53_mg	430.00	1	1	.	.	.	.	.	.	.	.	.	.	.	.	.	.
53_mg	221.50	3	3	1	80	return	0.892975552706	fa	True	53_mg	True	Utility_Vehicles	1186.35	1	187	NA	NA
53_mg	1016.00	0	1	.	.	.	.	.	.	.	.	.	.	.	.	.	.
53_mg	175.00	9	8	1	245	space	2.09380396351	cr	False	53_mg	False	Utility_Vehicles	1190.69	1	188	NA	NA
53_mg	418.00	1	1	.	.	.	.	.	.	.	.	.	.	.	.	.	.
53_mg	180.67	8	7	1	52	space	1.8558073981	cr	False	53_mg	False	Utility_Vehicles	1196.22	1	189	NA	NA
53_mg	1000.00	0	1	.	.	.	.	.	.	.	.	.	.	.	.	.	.
53_mg	201.64	10	7	1	47	space	2.61892075668	cr	False	53_mg	False	Utility_Vehicles	1201.52	1	190	0	31.87
53_mg	1010.00	0	1	.	.	.	.	.	.	.	.	.	.	.	.	.	.
53_mg	193.00	7	8	1	129	space	1.81929317495	cr	False	53_mg	False	Utility_Vehicles	1209.75	1	191	NA	NA
53_mg	1016.00	0	1	.	.	.	.	.	.	.	.	.	.	.	.	.	.
53_mg	281.33	2	2	1	141	return	0.867432274681	hi	False	53_mg	True	Utility_Vehicles	1215.02	1	192	NA	NA
53_mg	1014.00	0	1	.	.	.	.	.	.	.	.	.	.	.	.	.	.
53_mg	182.80	9	10	1	195	space	2.1555858166	cr	False	53_mg	False	Utility_Vehicles	1219.34	1	193	NA	NA
53_mg	1000.00	0	1	.	.	.	.	.	.	.	.	.	.	.	.	.	.
53_mg	177.25	7	7	1	191	space	1.62559826102	cr	False	53_mg	False	Utility_Vehicles	1224.93	1	194	NA	NA
53_mg	187.20	4	1	.	.	.	.	.	.	.	.	.	.	.	.	.	.
53_mg	201.14	7	5	1	168	space	1.62253534037	cr	False	53_mg	False	Utility_Vehicles	1230.05	1	195	NA	NA
53_mg	1016.00	0	1	.	.	.	.	.	.	.	.	.	.	.	.	.	.
53_mg	193.83	11	8	1	223	space	2.68465955433	cr	False	53_mg	False	Utility_Vehicles	1235.12	1	196	0	31.54
53_mg	1016.00	0	1	.	.	.	.	.	.	.	.	.	.	.	.	.	.
53_mg	151.00	5	5	1	76	space	1.14018030767	cr	False	53_mg	False	Utility_Vehicles	1243.34	1	197	NA	NA
53_mg	1014.00	0	1	.	.	.	.	.	.	.	.	.	.	.	.	.	.
53_mg	175.50	7	7	1	201	space	1.62316031399	cr	False	53_mg	False	Utility_Vehicles	1247.93	1	198	NA	NA
53_mg	1004.00	0	1	.	.	.	.	.	.	.	.	.	.	.	.	.	.
53_mg	230.29	7	5	1	184	space	1.80149957025	cr	False	53_mg	False	Utility_Vehicles	1253.05	1	199	NA	NA
53_mg	1012.00	0	1	.	.	.	.	.	.	.	.	.	.	.	.	.	.
53_mg	180.22	8	7	1	279	space	1.89743320941	cr	False	53_mg	False	Utility_Vehicles	1258.31	1	200	0	20.32
53_mg	147.20	4	1	.	.	.	.	.	.	.	.	.	.	.	.	.	.
53_mg	148.20	10	6	1	221	space	1.96329296968	cr	False	53_mg	False	Utility_Vehicles	1268.7	1	201	NA	NA
53_mg	1010.00	0	1	.	.	.	.	.	.	.	.	.	.	.	.	.	.
53_mg	165.00	3	2	1	229	return	0.805093993491	fa	True	53_mg	True	Utility_Vehicles	1274.2	1	202	NA	NA
53_mg	306.00	2	1	.	.	.	.	.	.	.	.	.	.	.	.	.	.
53_mg	145.60	10	7	1	243	space	2.12657970795	cr	False	53_mg	False	Utility_Vehicles	1278.47	1	203	NA	NA
53_mg	1012.00	0	1	.	.	.	.	.	.	.	.	.	.	.	.	.	.
53_mg	155.33	6	3	1	87	space	1.47268351953	cr	False	53_mg	False	Utility_Vehicles	1284.06	1	204	0	23.51
53_mg	455.00	1	1	.	.	.	.	.	.	.	.	.	.	.	.	.	.
53_mg	109.80	9	6	1	19	space	1.54445835314	cr	False	53_mg	False	Utility_Vehicles	1291.51	1	205	NA	NA
53_mg	292.00	2	1	.	.	.	.	.	.	.	.	.	.	.	.	.	.
53_mg	116.60	11	7	1	261	space	2.20699054108	cr	False	53_mg	False	Utility_Vehicles	1296.75	1	206	NA	NA
53_mg	1016.00	0	1	.	.	.	.	.	.	.	.	.	.	.	.	.	.
53_mg	134.00	8	6	1	139	space	1.80747475824	cr	False	53_mg	False	Utility_Vehicles	1302.4	1	207	NA	NA
53_mg	146.80	5	1	.	.	.	.	.	.	.	.	.	.	.	.	.	.
53_mg	131.43	7	5	1	196	space	1.53909091075	cr	False	53_mg	False	Utility_Vehicles	1307.85	1	208	NA	NA
53_mg	247.33	4	1	.	.	.	.	.	.	.	.	.	.	.	.	.	.
53_mg	74.44	8	3	1	147	return	1.015498247	hi	False	53_mg	True	Utility_Vehicles	1312.95	1	209	NA	NA
53_mg	445.00	1	1	.	.	.	.	.	.	.	.	.	.	.	.	.	.
53_mg	104.00	9	6	1	275	space	1.86376637348	cr	False	53_mg	False	Utility_Vehicles	1317.47	1	210	0	31.3
53_mg	254.67	2	1	.	.	.	.	.	.	.	.	.	.	.	.	.	.
53_mg	72.00	6	2	1	26	return	1.42069230956	hi	False	53_mg	True	Utility_Vehicles	1325.04	1	211	NA	NA
53_mg	163.00	3	1	.	.	.	.	.	.	.	.	.	.	.	.	.	.
53_mg	87.71	7	4	1	138	space	1.50579869252	cr	False	53_mg	False	Utility_Vehicles	1330.96	1	212	NA	NA
53_mg	103.00	6	1	.	.	.	.	.	.	.	.	.	.	.	.	.	.
53_mg	151.00	7	5	1	67	return	1.47310102399	hi	False	53_mg	True	Utility_Vehicles	1336.35	1	213	0	16.64
53_mg	320.67	2	1	.	.	.	.	.	.	.	.	.	.	.	.	.	.
53_mg	116.44	8	5	1	149	space	1.54346352699	cr	False	53_mg	False	Utility_Vehicles	1343.62	1	214	NA	NA
53_mg	122.40	5	1	.	.	.	.	.	.	.	.	.	.	.	.	.	.
53_mg	68.50	5	2	1	198	return	0.725816910213	hi	False	53_mg	True	Utility_Vehicles	1348.61	1	215	NA	NA
53_mg	120.40	5	1	.	.	.	.	.	.	.	.	.	.	.	.	.	.
53_mg	120.44	8	4	1	105	space	1.40120376158	cr	False	53_mg	False	Utility_Vehicles	1353.86	1	216	NA	NA
53_mg	284.00	4	1	.	.	.	.	.	.	.	.	.	.	.	.	.	.
53_mg	137.00	4	2	1	291	return	0.969977072091	hi	False	53_mg	True	Utility_Vehicles	1358.8	1	217	0	19.94
53_mg	199.00	3	1	.	.	.	.	.	.	.	.	.	.	.	.	.	.
53_mg	198.57	6	6	1	107	space	1.57252498518	cr	True	53_mg	True	Utility_Vehicles	1364.79	1	218	NA	NA
53_mg	416.00	2	1	.	.	.	.	.	.	.	.	.	.	.	.	.	.
53_mg	210.40	9	6	1	242	space	2.40648029867	cr	False	53_mg	False	Utility_Vehicles	1369.82	1	219	NA	NA
53_mg	1014.00	0	1	.	.	.	.	.	.	.	.	.	.	.	.	.	.
53_mg	180.60	9	8	1	83	space	2.08950429142	cr	False	53_mg	False	Utility_Vehicles	1375.7	1	220	NA	NA
53_mg	1000.00	0	1	.	.	.	.	.	.	.	.	.	.	.	.	.	.
53_mg	221.11	9	4	1	299	space	2.24545446213	cr	False	53_mg	False	Utility_Vehicles	1381.23	1	221	NA	NA
53_mg	455.00	1	1	.	.	.	.	.	.	.	.	.	.	.	.	.	.
53_mg	180.89	10	8	1	59	space	2.00635163841	cr	False	53_mg	False	Utility_Vehicles	1386.92	1	222	1	27.58
53_mg	226.50	3	1	.	.	.	.	.	.	.	.	.	.	.	.	.	.
53_mg	194.75	8	7	1	114	space	1.83491421735	cr	False	53_mg	False	Utility_Vehicles	1394.31	1	223	NA	NA
53_mg	499.00	1	1	.	.	.	.	.	.	.	.	.	.	.	.	.	.
53_mg	191.69	12	8	1	146	space	2.90897084615	cr	False	53_mg	False	Utility_Vehicles	1399.6	1	224	NA	NA
53_mg	182.50	3	1	.	.	.	.	.	.	.	.	.	.	.	.	.	.
53_mg	186.89	8	6	1	79	space	1.88338211551	cr	False	53_mg	False	Utility_Vehicles	1405.97	1	225	NA	NA
53_mg	1014.00	0	1	.	.	.	.	.	.	.	.	.	.	.	.	.	.
53_mg	191.56	8	7	1	160	space	1.95613564673	cr	False	53_mg	False	Utility_Vehicles	1411.31	1	226	NA	NA
53_mg	1016.00	0	1	.	.	.	.	.	.	.	.	.	.	.	.	.	.
53_mg	160.80	9	8	1	10	space	1.89095217758	cr	False	53_mg	False	Utility_Vehicles	1416.72	1	227	0	27.93
53_mg	277.33	2	1	.	.	.	.	.	.	.	.	.	.	.	.	.	.
53_mg	157.50	7	4	1	118	space	1.40588831482	cr	False	53_mg	False	Utility_Vehicles	1424.14	1	228	NA	NA
53_mg	182.00	4	1	.	.	.	.	.	.	.	.	.	.	.	.	.	.
53_mg	154.18	11	7	1	166	space	2.00589527935	cr	False	53_mg	False	Utility_Vehicles	1429.02	1	229	NA	NA
53_mg	1012.00	0	1	.	.	.	.	.	.	.	.	.	.	.	.	.	.
53_mg	170.67	8	8	1	31	space	1.83186669182	cr	False	53_mg	False	Utility_Vehicles	1434.48	1	230	NA	NA
53_mg	328.67	2	1	.	.	.	.	.	.	.	.	.	.	.	.	.	.
53_mg	172.67	5	5	1	285	space	1.17206569371	cr	False	53_mg	False	Utility_Vehicles	1439.75	1	231	0	20.26
53_mg	326.67	2	1	.	.	.	.	.	.	.	.	.	.	.	.	.	.
53_mg	182.40	4	3	1	30	return	0.954427874181	hi	False	53_mg	True	Utility_Vehicles	1446.43	1	232	NA	NA
53_mg	1012.00	0	1	.	.	.	.	.	.	.	.	.	.	.	.	.	.
53_mg	178.29	6	6	1	120	space	1.42280878918	cr	False	53_mg	False	Utility_Vehicles	1450.82	1	233	NA	NA
53_mg	499.00	1	1	.	.	.	.	.	.	.	.	.	.	.	.	.	.
53_mg	193.75	7	6	1	231	space	1.78044144029	cr	False	53_mg	False	Utility_Vehicles	1455.86	1	234	NA	NA
53_mg	1014.00	0	1	.	.	.	.	.	.	.	.	.	.	.	.	.	.
53_mg	249.33	2	2	1	204	return	0.72204250918	hi	False	53_mg	True	Utility_Vehicles	1461.06	1	235	NA	NA
53_mg	1002.00	0	1	.	.	.	.	.	.	.	.	.	.	.	.	.	.
53_mg	180.75	8	7	1	286	space	1.70577010134	cr	False	53_mg	False	Utility_Vehicles	1465.33	1	236	0	24.18
53_mg	214.50	4	1	.	.	.	.	.	.	.	.	.	.	.	.	.	.
53_mg	164.20	9	7	1	98	space	1.93241267325	cr	False	53_mg	False	Utility_Vehicles	1472.34	1	237	NA	NA
53_mg	260.00	2	1	.	.	.	.	.	.	.	.	.	.	.	.	.	.
53_mg	201.20	9	7	1	215	space	2.25642064208	cr	False	53_mg	False	Utility_Vehicles	1477.68	1	238	NA	NA
53_mg	1012.00	0	1	.	.	.	.	.	.	.	.	.	.	.	.	.	.
53_mg	174.22	8	8	1	295	space	1.81818655005	cr	False	53_mg	False	Utility_Vehicles	1483.38	1	239	NA	NA
53_mg	1014.00	0	1	.	.	.	.	.	.	.	.	.	.	.	.	.	.
53_mg	185.50	7	5	1	203	space	1.67320145963	cr	False	53_mg	False	Utility_Vehicles	1488.64	1	240	0	21.44
53_mg	234.50	3	1	.	.	.	.	.	.	.	.	.	.	.	.	.	.
53_mg	157.00	7	6	1	278	space	1.45565894397	cr	False	53_mg	False	Utility_Vehicles	1495.59	1	241	NA	NA
53_mg	1014.00	0	1	.	.	.	.	.	.	.	.	.	.	.	.	.	.
53_mg	219.14	6	6	1	178	return	1.72269644059	hi	False	53_mg	True	Utility_Vehicles	1500.5	1	242	NA	NA
53_mg	412.00	1	1	.	.	.	.	.	.	.	.	.	.	.	.	.	.
53_mg	162.67	5	6	1	132	space	1.12209675915	cr	False	53_mg	False	Utility_Vehicles	1505.66	1	243	NA	NA
53_mg	1012.00	0	1	.	.	.	.	.	.	.	.	.	.	.	.	.	.
53_mg	235.20	9	6	1	271	space	2.61106258351	cr	False	53_mg	False	Utility_Vehicles	1510.23	1	244	NA	NA
53_mg	1014.00	0	1	.	.	.	.	.	.	.	.	.	.	.	.	.	.
53_mg	186.67	8	7	1	142	space	1.97719084419	cr	False	53_mg	False	Utility_Vehicles	1516.31	1	245	NA	NA
53_mg	846.00	1	1	.	.	.	.	.	.	.	.	.	.	.	.	.	.
53_mg	268.00	5	4	1	55	space	1.70146969613	cr	False	53_mg	False	Utility_Vehicles	1521.73	1	246	0	31.28
53_mg	484.00	1	1	.	.	.	.	.	.	.	.	.	.	.	.	.	.
53_mg	170.75	7	4	1	232	space	1.5945691439	cr	False	53_mg	False	Utility_Vehicles	1528.6	1	247	NA	NA
53_mg	1006.00	0	1	.	.	.	.	.	.	.	.	.	.	.	.	.	.
53_mg	176.00	5	3	1	7	space	1.00084124017	cr	False	53_mg	False	Utility_Vehicles	1533.74	1	248	NA	NA
53_mg	1016.00	0	1	.	.	.	.	.	.	.	.	.	.	.	.	.	.
53_mg	237.78	8	5	1	217	space	2.47330189525	cr	False	53_mg	False	Utility_Vehicles	1538.19	1	249	NA	NA
53_mg	262.00	2	1	.	.	.	.	.	.	.	.	.	.	.	.	.	.
53_mg	201.00	5	5	1	212	space	1.39348561183	cr	False	53_mg	False	Utility_Vehicles	1544.11	1	250	0	20.36
53_mg	182.80	4	1	.	.	.	.	.	.	.	.	.	.	.	.	.	.
53_mg	202.00	6	5	1	145	space	1.60815214901	cr	True	53_mg	True	Utility_Vehicles	1550.93	1	251	NA	NA
53_mg	1012.00	0	1	.	.	.	.	.	.	.	.	.	.	.	.	.	.
53_mg	166.00	7	8	1	199	space	1.55572510685	cr	False	53_mg	False	Utility_Vehicles	1555.99	1	252	NA	NA
53_mg	324.67	2	1	.	.	.	.	.	.	.	.	.	.	.	.	.	.
53_mg	162.57	6	3	1	2	space	1.45124564035	cr	False	53_mg	False	Utility_Vehicles	1560.99	1	253	NA	NA
53_mg	1010.00	0	1	.	.	.	.	.	.	.	.	.	.	.	.	.	.
53_mg	213.00	10	7	1	156	space	2.52329868794	cr	False	53_mg	False	Utility_Vehicles	1567.58	1	254	2	22.93
53_mg	276.00	2	1	.	.	.	.	.	.	.	.	.	.	.	.	.	.
53_mg	347.00	2	1	1	250	return	1.012886187	hi	False	53_mg	True	Utility_Vehicles	1590.25	1	255	1	18.89
53_mg	220.50	3	1	.	.	.	.	.	.	.	.	.	.	.	.	.	.
53_mg	165.62	16	8	1	24	space	3.32405048906	mi	False	53_mg	True	Utility_Vehicles	1665.77	1	256	3	74.14
53_mg	173.00	3	1	.	.	.	.	.	.	.	.	.	.	.	.	.	.
53_mg	76.92	13	6	1	265	space	1.75146685535	cr	False	53_mg	False	Utility_Vehicles	1676.03	1	257	NA	NA
53_mg	40.67	6	1	.	.	.	.	.	.	.	.	.	.	.	.	.	.
53_mg	136.44	9	6	1	172	return	2.03935171355	fa	True	53_mg	True	Utility_Vehicles	1681.25	1	258	NA	NA
53_mg	1014.00	0	1	.	.	.	.	.	.	.	.	.	.	.	.	.	.
53_mg	155.50	7	6	1	258	space	1.44543576788	cr	False	53_mg	False	Utility_Vehicles	1686.74	1	259	NA	NA
53_mg	313.33	2	1	.	.	.	.	.	.	.	.	.	.	.	.	.	.
53_mg	187.67	5	4	1	220	return	1.32269570744	hi	False	53_mg	True	Utility_Vehicles	1691.63	1	260	NA	NA
53_mg	1012.00	0	1	.	.	.	.	.	.	.	.	.	.	.	.	.	.
53_mg	198.67	6	5	1	15	space	1.37428187596	mi	False	53_mg	True	Utility_Vehicles	1696.4	1	261	0	25.46
53_mg	1014.00	0	1	.	.	.	.	.	.	.	.	.	.	.	.	.	.
53_mg	232.00	2	2	1	121	return	0.671701889427	hi	False	53_mg	True	Utility_Vehicles	1703.12	1	262	NA	NA
53_mg	189.20	4	1	.	.	.	.	.	.	.	.	.	.	.	.	.	.
53_mg	186.00	4	3	1	6	space	1.03860980936	cr	False	53_mg	False	Utility_Vehicles	1707.49	1	263	NA	NA
53_mg	1014.00	0	1	.	.	.	.	.	.	.	.	.	.	.	.	.	.
53_mg	180.67	5	6	1	239	space	1.27752532426	cr	False	53_mg	False	Utility_Vehicles	1712.21	1	264	NA	NA
53_mg	1000.00	0	1	.	.	.	.	.	.	.	.	.	.	.	.	.	.
53_mg	157.67	5	5	1	248	space	1.0705992966	cr	False	53_mg	False	Utility_Vehicles	1717.18	1	265	NA	NA
53_mg	498.00	1	1	.	.	.	.	.	.	.	.	.	.	.	.	.	.
53_mg	176.67	5	5	1	73	space	1.22370867798	cr	False	53_mg	False	Utility_Vehicles	1721.72	1	266	NA	NA
53_mg	416.00	3	1	.	.	.	.	.	.	.	.	.	.	.	.	.	.
53_mg	185.75	8	7	1	257	space	1.75595566904	cr	False	53_mg	False	Utility_Vehicles	1726.39	1	267	NA	NA
53_mg	1008.00	0	1	.	.	.	.	.	.	.	.	.	.	.	.	.	.
53_mg	194.40	9	9	1	94	space	2.21332275216	cr	False	53_mg	False	Utility_Vehicles	1731.68	1	268	0	34.67
53_mg	1016.00	0	1	.	.	.	.	.	.	.	.	.	.	.	.	.	.
53_mg	187.50	7	7	1	125	space	1.72264842206	cr	False	53_mg	False	Utility_Vehicles	1739.18	1	269	NA	NA
53_mg	1016.00	0	1	.	.	.	.	.	.	.	.	.	.	.	.	.	.
53_mg	181.71	7	6	1	72	space	1.45703205327	cr	False	53_mg	False	Utility_Vehicles	1744.37	1	270	NA	NA
53_mg	275.33	2	1	.	.	.	.	.	.	.	.	.	.	.	.	.	.
53_mg	215.09	10	8	1	122	space	2.65236839355	cr	False	53_mg	False	Utility_Vehicles	1749.29	1	271	NA	NA
53_mg	1016.00	0	1	.	.	.	.	.	.	.	.	.	.	.	.	.	.
53_mg	209.75	7	7	1	113	space	1.88920518378	cr	False	53_mg	False	Utility_Vehicles	1755.49	1	272	NA	NA
53_mg	1016.00	0	1	.	.	.	.	.	.	.	.	.	.	.	.	.	.
53_mg	162.91	10	8	1	270	space	2.11501348001	cr	False	53_mg	False	Utility_Vehicles	1761.12	1	273	NA	NA
53_mg	324.00	2	1	.	.	.	.	.	.	.	.	.	.	.	.	.	.
53_mg	192.67	8	8	1	197	space	2.03160643886	cr	False	53_mg	False	Utility_Vehicles	1766.75	1	274	0	33.08
53_mg	282.00	3	1	.	.	.	.	.	.	.	.	.	.	.	.	.	.
53_mg	180.67	5	5	1	241	space	1.22398395964	cr	False	53_mg	False	Utility_Vehicles	1774.31	1	275	NA	NA
53_mg	986.00	1	1	.	.	.	.	.	.	.	.	.	.	.	.	.	.
53_mg	195.67	5	5	1	190	return	1.27222496114	hi	False	53_mg	True	Utility_Vehicles	1779.58	1	276	NA	NA
53_mg	1014.00	0	1	.	.	.	.	.	.	.	.	.	.	.	.	.	.
53_mg	146.00	5	3	1	276	space	1.04791586864	cr	False	53_mg	False	Utility_Vehicles	1784.34	1	277	NA	NA
53_mg	237.50	3	1	.	.	.	.	.	.	.	.	.	.	.	.	.	.
53_mg	211.00	8	5	1	70	space	1.98012107261	cr	False	53_mg	False	Utility_Vehicles	1788.82	1	278	NA	NA
53_mg	330.67	2	1	.	.	.	.	.	.	.	.	.	.	.	.	.	.
53_mg	178.73	10	7	1	71	space	2.4063483394	cr	False	53_mg	False	Utility_Vehicles	1794.24	1	279	NA	NA
53_mg	1012.00	0	1	.	.	.	.	.	.	.	.	.	.	.	.	.	.
53_mg	181.00	7	6	1	11	space	1.6557949353	cr	False	53_mg	False	Utility_Vehicles	1800.09	1	280	0	30.92
53_mg	326.67	2	1	.	.	.	.	.	.	.	.	.	.	.	.	.	.
53_mg	154.25	7	5	1	194	space	1.45711122878	cr	False	53_mg	False	Utility_Vehicles	1806.92	1	281	NA	NA
53_mg	1014.00	0	1	.	.	.	.	.	.	.	.	.	.	.	.	.	.
53_mg	180.33	5	5	1	137	space	1.31141795707	cr	False	53_mg	False	Utility_Vehicles	1811.82	1	282	NA	NA
53_mg	1000.00	0	1	.	.	.	.	.	.	.	.	.	.	.	.	.	.
53_mg	176.67	11	9	1	214	space	2.50797821942	cr	False	53_mg	False	Utility_Vehicles	1816.54	1	283	NA	NA
53_mg	1012.00	0	1	.	.	.	.	.	.	.	.	.	.	.	.	.	.
53_mg	177.33	8	8	1	186	space	1.87266262597	cr	False	53_mg	False	Utility_Vehicles	1822.51	1	284	NA	NA
53_mg	1008.00	0	1	.	.	.	.	.	.	.	.	.	.	.	.	.	.
53_mg	197.20	10	10	1	169	space	2.32308755309	cr	False	53_mg	False	Utility_Vehicles	1828.03	1	285	0	26.91
53_mg	1012.00	0	1	.	.	.	.	.	.	.	.	.	.	.	.	.	.
53_mg	181.11	9	7	1	161	space	1.98092602397	cr	False	53_mg	False	Utility_Vehicles	1835.83	1	286	NA	NA
53_mg	1014.00	0	1	.	.	.	.	.	.	.	.	.	.	.	.	.	.
53_mg	203.43	6	6	1	116	space	1.63915707369	cr	False	53_mg	False	Utility_Vehicles	1841.26	1	287	NA	NA
53_mg	411.00	1	1	.	.	.	.	.	.	.	.	.	.	.	.	.	.
53_mg	187.25	7	6	1	185	space	1.7727005643	cr	False	53_mg	False	Utility_Vehicles	1846.35	1	288	NA	NA
53_mg	1002.00	0	1	.	.	.	.	.	.	.	.	.	.	.	.	.	.
53_mg	218.40	5	4	1	208	return	1.20424542221	fa	True	53_mg	True	Utility_Vehicles	1851.67	1	289	NA	NA
53_mg	1014.00	0	1	.	.	.	.	.	.	.	.	.	.	.	.	.	.
53_mg	198.25	7	6	1	41	space	1.8627378245	cr	False	53_mg	False	Utility_Vehicles	1856.31	1	290	NA	NA
53_mg	500.00	1	1	.	.	.	.	.	.	.	.	.	.	.	.	.	.
53_mg	200.00	7	6	1	40	space	1.60742234107	cr	False	53_mg	False	Utility_Vehicles	1861.78	1	291	0	31.03
53_mg	427.00	2	1	.	.	.	.	.	.	.	.	.	.	.	.	.	.
53_mg	192.00	5	6	1	3	space	1.33452878636	cr	False	53_mg	False	Utility_Vehicles	1869.17	1	292	NA	NA
53_mg	273.33	2	1	.	.	.	.	.	.	.	.	.	.	.	.	.	.
53_mg	217.20	9	8	1	193	space	2.48549126409	cr	False	53_mg	False	Utility_Vehicles	1874.24	1	293	NA	NA
53_mg	423.00	1	1	.	.	.	.	.	.	.	.	.	.	.	.	.	.
53_mg	186.44	8	8	1	66	space	1.93499430921	cr	False	53_mg	False	Utility_Vehicles	1880.18	1	294	NA	NA
53_mg	1012.00	0	1	.	.	.	.	.	.	.	.	.	.	.	.	.	.
53_mg	175.14	6	6	1	29	space	1.41790650319	cr	False	53_mg	False	Utility_Vehicles	1885.55	1	295	NA	NA
53_mg	1016.00	0	1	.	.	.	.	.	.	.	.	.	.	.	.	.	.
53_mg	181.00	5	5	1	238	space	1.22501837346	cr	False	53_mg	False	Utility_Vehicles	1890.42	1	296	NA	NA
53_mg	501.00	1	1	.	.	.	.	.	.	.	.	.	.	.	.	.	.
53_mg	173.25	7	5	1	252	space	1.65144687815	cr	False	53_mg	False	Utility_Vehicles	1895.1	1	297	0	31.05
53_mg	1014.00	0	1	.	.	.	.	.	.	.	.	.	.	.	.	.	.
53_mg	318.00	2	2	1	148	return	0.934177261603	fa	True	53_mg	True	Utility_Vehicles	1902.14	1	298	NA	NA
53_mg	290.00	2	1	.	.	.	.	.	.	.	.	.	.	.	.	.	.
53_mg	208.67	2	3	1	174	return	0.638390976936	fa	True	53_mg	True	Utility_Vehicles	1906.75	1	299	NA	NA
53_mg	1012.00	0	1	.	.	.	.	.	.	.	.	.	.	.	.	.	.
53_mg	177.43	7	6	1	35	space	1.48947166814	cr	False	53_mg	False	Utility_Vehicles	1910.83	1	300	0	13.64
55_id	306.67	2	1	.	.	.	.	.	.	.	.	.	.	.	.	.	.
55_id	1028.00	0	1	.	.	.	.	.	.	.	.	.	.	.	.	.	.
55_id	1010.00	0	1	.	.	.	.	.	.	.	.	.	.	.	.	.	.
55_id	313.33	14	7	2	123	space	5.13373629778	cr	False	55_id	False	Cats	1.5	3	1	NA	NA
55_id	412.00	1	1	.	.	.	.	.	.	.	.	.	.	.	.	.	.
55_id	192.88	15	9	2	63	space	3.51955874293	cr	False	55_id	False	Cats	10.1	3	2	NA	NA
55_id	423.00	1	1	.	.	.	.	.	.	.	.	.	.	.	.	.	.
55_id	150.17	11	7	2	113	space	2.15822793392	cr	False	55_id	False	Cats	17.17	3	3	0	19.39
55_id	1010.00	0	1	.	.	.	.	.	.	.	.	.	.	.	.	.	.
55_id	196.14	14	10	2	119	space	3.2066170231	cr	False	55_id	False	Cats	32.28	3	4	NA	NA
55_id	360.00	2	1	.	.	.	.	.	.	.	.	.	.	.	.	.	.
55_id	233.33	5	3	2	278	return	1.83116804092	hi	False	55_id	True	Cats	38.97	3	5	NA	NA
55_id	419.00	1	1	.	.	.	.	.	.	.	.	.	.	.	.	.	.
55_id	441.33	2	2	2	289	return	1.32503321889	hi	False	55_id	True	Cats	44.25	3	6	NA	NA
55_id	419.00	1	1	.	.	.	.	.	.	.	.	.	.	.	.	.	.
55_id	207.00	9	8	2	292	space	2.30595484428	cr	False	55_id	False	Cats	49.05	3	7	NA	NA
55_id	1014.00	0	1	.	.	.	.	.	.	.	.	.	.	.	.	.	.
55_id	179.20	9	5	2	127	space	2.19242663891	cr	False	55_id	False	Cats	54.84	3	8	0	28.23
55_id	994.00	1	1	.	.	.	.	.	.	.	.	.	.	.	.	.	.
55_id	470.29	6	3	2	219	return	3.39348487876	fa	True	55_id	True	Cats	63.01	3	9	NA	NA
55_id	225.33	2	1	.	.	.	.	.	.	.	.	.	.	.	.	.	.
55_id	188.44	8	6	2	232	space	1.90172591695	cr	False	55_id	False	Cats	69.88	3	10	NA	NA
55_id	442.00	1	1	.	.	.	.	.	.	.	.	.	.	.	.	.	.
55_id	332.80	4	3	2	120	return	1.72226757306	hi	False	55_id	True	Cats	75.27	3	11	NA	NA
55_id	195.33	2	1	.	.	.	.	.	.	.	.	.	.	.	.	.	.
55_id	167.33	8	5	2	69	space	1.72245414875	cr	False	55_id	False	Cats	80.49	3	12	NA	NA
55_id	1006.00	0	1	.	.	.	.	.	.	.	.	.	.	.	.	.	.
55_id	246.89	8	5	2	275	space	2.46985702583	cr	False	55_id	False	Cats	85.64	3	13	0	28.58
55_id	500.00	1	1	.	.	.	.	.	.	.	.	.	.	.	.	.	.
55_id	207.08	13	8	2	15	space	3.18976216175	cr	False	55_id	False	Cats	94.6	3	14	NA	NA
55_id	1006.00	0	1	.	.	.	.	.	.	.	.	.	.	.	.	.	.
55_id	198.00	7	3	2	179	space	1.70216908009	cr	False	55_id	False	Cats	101.37	3	15	NA	NA
55_id	1014.00	0	1	.	.	.	.	.	.	.	.	.	.	.	.	.	.
55_id	256.00	8	6	2	258	space	2.52178188972	cr	False	55_id	False	Cats	106.54	3	16	NA	NA
55_id	1014.00	0	1	.	.	.	.	.	.	.	.	.	.	.	.	.	.
55_id	251.40	9	7	2	267	space	2.77582873154	cr	False	55_id	False	Cats	112.7	3	17	1	24.38
55_id	428.00	1	1	.	.	.	.	.	.	.	.	.	.	.	.	.	.
55_id	234.53	14	6	2	23	space	3.92525608343	cr	False	55_id	False	Cats	122.47	3	18	NA	NA
55_id	616.00	1	1	.	.	.	.	.	.	.	.	.	.	.	.	.	.
55_id	212.33	5	3	2	182	return	1.40376193821	hi	False	55_id	True	Cats	129.9	3	19	NA	NA
55_id	146.67	3	1	.	.	.	.	.	.	.	.	.	.	.	.	.	.
55_id	355.60	10	6	2	207	space	3.88660265424	cr	False	55_id	False	Cats	134.75	3	20	NA	NA
55_id	418.00	1	1	.	.	.	.	.	.	.	.	.	.	.	.	.	.
55_id	221.83	11	8	2	95	space	3.03011786524	cr	False	55_id	False	Cats	142.11	3	21	0	26.13
55_id	370.00	1	1	.	.	.	.	.	.	.	.	.	.	.	.	.	.
55_id	209.60	14	8	2	126	space	3.60027051647	cr	False	55_id	False	Cats	150.78	3	22	NA	NA
55_id	876.00	1	1	.	.	.	.	.	.	.	.	.	.	.	.	.	.
55_id	344.77	12	7	2	271	space	4.93729993055	cr	False	55_id	False	Cats	157.83	3	23	NA	NA
55_id	429.00	1	1	.	.	.	.	.	.	.	.	.	.	.	.	.	.
55_id	218.73	11	7	2	83	space	2.80730651016	cr	False	55_id	False	Cats	166.52	3	24	NA	NA
55_id	336.00	1	1	.	.	.	.	.	.	.	.	.	.	.	.	.	.
55_id	208.40	9	7	2	21	space	2.36012631434	cr	False	55_id	False	Cats	173.1	3	25	0	28.13
55_id	376.00	1	1	.	.	.	.	.	.	.	.	.	.	.	.	.	.
55_id	212.67	8	6	2	210	space	2.17773407645	mi	False	55_id	True	Cats	181.62	3	26	NA	NA
55_id	423.00	1	1	.	.	.	.	.	.	.	.	.	.	.	.	.	.
55_id	553.00	9	6	2	160	space	6.07167623064	cr	False	55_id	False	Cats	187.26	3	27	NA	NA
55_id	413.00	1	1	.	.	.	.	.	.	.	.	.	.	.	.	.	.
55_id	276.57	6	5	2	136	return	2.1050677849	hi	False	55_id	True	Cats	197.7	3	28	0	21.66
55_id	354.00	2	1	.	.	.	.	.	.	.	.	.	.	.	.	.	.
55_id	468.33	12	6	2	22	space	6.3552412563	cr	False	55_id	False	Cats	205.22	3	29	NA	NA
55_id	972.00	1	1	.	.	.	.	.	.	.	.	.	.	.	.	.	.
55_id	208.20	9	8	2	5	space	2.31856831547	cr	False	55_id	False	Cats	215.35	3	30	NA	NA
55_id	1014.00	0	1	.	.	.	.	.	.	.	.	.	.	.	.	.	.
55_id	262.50	7	5	2	91	space	2.33929874655	cr	False	55_id	False	Cats	221.13	3	31	NA	NA
55_id	1012.00	0	1	.	.	.	.	.	.	.	.	.	.	.	.	.	.
55_id	240.33	11	6	2	50	space	3.31020943035	cr	False	55_id	False	Cats	226.97	3	32	1	28.51
55_id	1014.00	0	1	.	.	.	.	.	.	.	.	.	.	.	.	.	.
55_id	216.22	8	5	2	80	space	2.22185501707	cr	False	55_id	False	Cats	235.93	3	33	NA	NA
55_id	280.00	2	1	.	.	.	.	.	.	.	.	.	.	.	.	.	.
55_id	212.60	10	7	2	213	space	2.97285305057	cr	False	55_id	False	Cats	241.7	3	34	NA	NA
55_id	265.33	2	1	.	.	.	.	.	.	.	.	.	.	.	.	.	.
55_id	236.22	8	5	2	11	space	2.31637082744	mi	False	55_id	True	Cats	248.34	3	35	NA	NA
55_id	391.00	1	1	.	.	.	.	.	.	.	.	.	.	.	.	.	.
55_id	317.50	7	6	2	84	space	2.78918887215	cr	False	55_id	False	Cats	254.11	3	36	NA	NA
55_id	394.00	1	1	.	.	.	.	.	.	.	.	.	.	.	.	.	.
55_id	203.17	11	7	2	221	space	2.79162022128	cr	False	55_id	False	Cats	260.36	3	37	1	30.7
55_id	1014.00	0	1	.	.	.	.	.	.	.	.	.	.	.	.	.	.
55_id	216.55	10	8	2	25	space	2.71299377043	cr	False	55_id	False	Cats	272.14	3	38	NA	NA
55_id	1014.00	0	1	.	.	.	.	.	.	.	.	.	.	.	.	.	.
55_id	202.00	9	7	2	131	space	2.10632762912	cr	False	55_id	False	Cats	278.31	3	39	NA	NA
55_id	417.00	1	1	.	.	.	.	.	.	.	.	.	.	.	.	.	.
55_id	218.57	13	9	2	55	space	3.49152510066	cr	False	55_id	False	Cats	283.88	3	40	NA	NA
55_id	437.00	1	1	.	.	.	.	.	.	.	.	.	.	.	.	.	.
55_id	191.00	9	6	2	228	space	2.14541835664	cr	False	55_id	False	Cats	290.84	3	41	NA	NA
55_id	1014.00	0	1	.	.	.	.	.	.	.	.	.	.	.	.	.	.
55_id	194.91	10	6	2	64	space	2.46872840769	cr	False	55_id	False	Cats	296.43	3	42	0	30.22
55_id	417.00	1	1	.	.	.	.	.	.	.	.	.	.	.	.	.	.
55_id	274.91	10	8	2	288	space	3.27055274433	cr	False	55_id	False	Cats	311.66	3	43	NA	NA
55_id	116.00	3	1	.	.	.	.	.	.	.	.	.	.	.	.	.	.
55_id	201.11	8	7	2	47	space	2.24968595535	cr	False	55_id	False	Cats	318.63	3	44	NA	NA
55_id	221.33	2	1	.	.	.	.	.	.	.	.	.	.	.	.	.	.
55_id	205.27	10	7	2	101	space	2.47351962805	cr	False	55_id	False	Cats	324.38	3	45	NA	NA
55_id	375.00	1	1	.	.	.	.	.	.	.	.	.	.	.	.	.	.
55_id	187.00	11	8	2	274	space	2.53179283132	cr	False	55_id	False	Cats	330.33	3	46	0	24.66
55_id	351.00	2	1	.	.	.	.	.	.	.	.	.	.	.	.	.	.
55_id	284.17	11	8	2	100	space	3.87964143738	cr	False	55_id	False	Cats	339.49	3	47	NA	NA
55_id	422.00	1	1	.	.	.	.	.	.	.	.	.	.	.	.	.	.
55_id	250.00	14	9	2	132	space	4.05774353351	cr	False	55_id	False	Cats	346.83	3	48	NA	NA
55_id	1006.00	0	1	.	.	.	.	.	.	.	.	.	.	.	.	.	.
55_id	200.00	13	8	2	262	space	3.20671342668	cr	False	55_id	False	Cats	354.91	3	49	NA	NA
55_id	1006.00	0	1	.	.	.	.	.	.	.	.	.	.	.	.	.	.
55_id	336.13	14	5	2	224	return	5.70577413344	fa	False	55_id	False	Cats	361.62	3	50	0	31.32
55_id	413.00	1	1	.	.	.	.	.	.	.	.	.	.	.	.	.	.
55_id	180.00	10	7	2	36	space	2.08935107209	cr	False	55_id	False	Cats	373.7	3	51	NA	NA
55_id	329.00	2	1	.	.	.	.	.	.	.	.	.	.	.	.	.	.
55_id	177.56	8	6	2	268	space	1.99815806886	cr	False	55_id	False	Cats	379.24	3	52	NA	NA
55_id	1012.00	0	1	.	.	.	.	.	.	.	.	.	.	.	.	.	.
55_id	184.60	9	7	2	240	space	2.11321590183	mi	False	55_id	True	Cats	384.71	3	53	NA	NA
55_id	249.00	2	1	.	.	.	.	.	.	.	.	.	.	.	.	.	.
55_id	189.60	9	7	2	133	space	2.37799909461	cr	False	55_id	False	Cats	390.28	3	54	NA	NA
55_id	1018.00	0	1	.	.	.	.	.	.	.	.	.	.	.	.	.	.
55_id	251.67	12	7	2	105	space	3.50620813272	cr	False	55_id	False	Cats	396.64	3	55	0	30.05
55_id	423.00	1	1	.	.	.	.	.	.	.	.	.	.	.	.	.	.
55_id	200.29	7	3	2	115	return	2.35852374253	hi	False	55_id	True	Cats	406.85	3	56	NA	NA
55_id	417.00	1	1	.	.	.	.	.	.	.	.	.	.	.	.	.	.
55_id	204.14	13	8	2	226	space	3.30677409127	cr	False	55_id	False	Cats	412.67	3	57	NA	NA
55_id	406.00	1	1	.	.	.	.	.	.	.	.	.	.	.	.	.	.
55_id	206.60	9	6	2	177	return	2.83988944744	fa	True	55_id	True	Cats	419.59	3	58	NA	NA
55_id	419.00	1	1	.	.	.	.	.	.	.	.	.	.	.	.	.	.
55_id	184.22	8	6	2	92	space	1.88865168806	cr	False	55_id	False	Cats	425.91	3	59	0	24.44
55_id	1014.00	0	1	.	.	.	.	.	.	.	.	.	.	.	.	.	.
55_id	262.44	9	9	2	20	space	2.66899232619	cr	False	55_id	False	Cats	433.35	3	60	NA	NA
55_id	1002.00	0	1	.	.	.	.	.	.	.	.	.	.	.	.	.	.
55_id	175.54	13	6	2	166	space	2.74860407278	cr	False	55_id	False	Cats	439.57	3	61	NA	NA
55_id	1014.00	0	1	.	.	.	.	.	.	.	.	.	.	.	.	.	.
55_id	209.76	16	9	2	283	space	4.14479484921	cr	False	55_id	False	Cats	445.76	3	62	NA	NA
55_id	418.00	1	1	.	.	.	.	.	.	.	.	.	.	.	.	.	.
55_id	260.62	12	8	2	225	space	3.73329496739	cr	False	55_id	False	Cats	453.72	3	63	0	27.72
55_id	1010.00	1	1	.	.	.	.	.	.	.	.	.	.	.	.	.	.
55_id	320.92	12	8	2	58	space	4.5840461271	cr	False	55_id	False	Cats	463.26	3	64	NA	NA
55_id	415.00	1	1	.	.	.	.	.	.	.	.	.	.	.	.	.	.
55_id	233.67	11	8	2	189	space	3.15256065089	cr	True	55_id	True	Cats	471.6	3	65	NA	NA
55_id	399.00	1	1	.	.	.	.	.	.	.	.	.	.	.	.	.	.
55_id	200.89	8	7	2	72	space	2.05019253219	cr	False	55_id	False	Cats	478.2	3	66	0	20.45
55_id	1006.00	0	1	.	.	.	.	.	.	.	.	.	.	.	.	.	.
55_id	207.50	7	4	2	85	return	2.1796595818	fa	True	55_id	True	Cats	485.86	3	67	NA	NA
55_id	379.00	1	1	.	.	.	.	.	.	.	.	.	.	.	.	.	.
55_id	181.00	11	8	2	71	space	2.57934984408	cr	False	55_id	False	Cats	491.51	3	68	NA	NA
55_id	406.00	1	1	.	.	.	.	.	.	.	.	.	.	.	.	.	.
55_id	251.33	11	9	2	184	space	3.33195044927	cr	False	55_id	False	Cats	497.53	3	69	NA	NA
55_id	398.00	1	1	.	.	.	.	.	.	.	.	.	.	.	.	.	.
55_id	357.62	15	9	2	206	space	6.47558185784	cr	False	55_id	False	Cats	504.3	3	70	0	28.77
55_id	363.00	2	1	.	.	.	.	.	.	.	.	.	.	.	.	.	.
55_id	298.10	21	9	2	186	space	7.26664491784	cr	False	55_id	False	Cats	516.69	3	71	NA	NA
55_id	316.00	1	1	.	.	.	.	.	.	.	.	.	.	.	.	.	.
55_id	163.50	11	9	2	183	space	2.53972504823	cr	False	55_id	False	Cats	527.51	3	72	NA	NA
55_id	412.00	1	1	.	.	.	.	.	.	.	.	.	.	.	.	.	.
55_id	207.60	9	8	2	194	space	2.45580263296	cr	False	55_id	False	Cats	533.53	3	73	NA	NA
55_id	542.00	2	1	.	.	.	.	.	.	.	.	.	.	.	.	.	.
55_id	252.17	11	8	2	153	space	3.41141080926	cr	False	55_id	False	Cats	539.45	3	74	0	29.81
55_id	1010.00	0	1	.	.	.	.	.	.	.	.	.	.	.	.	.	.
55_id	189.54	12	8	2	28	space	3.09436259099	cr	False	55_id	False	Cats	548.56	3	75	NA	NA
55_id	363.00	1	1	.	.	.	.	.	.	.	.	.	.	.	.	.	.
55_id	222.44	8	7	2	76	space	2.27582085069	cr	False	55_id	False	Cats	555.13	3	76	NA	NA
55_id	1006.00	0	1	.	.	.	.	.	.	.	.	.	.	.	.	.	.
55_id	330.00	2	3	2	293	return	0.985796786437	fa	True	55_id	True	Cats	560.95	3	77	NA	NA
55_id	386.00	1	1	.	.	.	.	.	.	.	.	.	.	.	.	.	.
55_id	205.14	6	6	2	61	space	1.61081955855	cr	False	55_id	False	Cats	565.4	3	78	NA	NA
55_id	1012.00	0	1	.	.	.	.	.	.	.	.	.	.	.	.	.	.
55_id	230.60	9	5	2	256	return	2.70231203601	hi	False	55_id	True	Cats	570.47	3	79	0	28.11
55_id	1014.00	0	1	.	.	.	.	.	.	.	.	.	.	.	.	.	.
55_id	277.83	11	4	2	217	return	3.69481051934	hi	False	55_id	True	Cats	578.58	3	80	NA	NA
55_id	1014.00	0	1	.	.	.	.	.	.	.	.	.	.	.	.	.	.
55_id	219.33	8	6	2	10	space	2.168690836	cr	False	55_id	False	Cats	585.88	3	81	NA	NA
55_id	393.00	1	1	.	.	.	.	.	.	.	.	.	.	.	.	.	.
55_id	311.53	17	7	2	254	space	6.22582589078	cr	False	55_id	False	Cats	591.54	3	82	NA	NA
55_id	390.00	1	1	.	.	.	.	.	.	.	.	.	.	.	.	.	.
55_id	603.07	14	5	2	114	space	9.88104240474	cr	True	55_id	True	Cats	601.43	3	83	0	36.37
55_id	300.00	1	1	.	.	.	.	.	.	.	.	.	.	.	.	.	.
55_id	242.55	11	5	2	239	space	3.41235725034	cr	False	55_id	False	Cats	617.21	3	84	NA	NA
55_id	138.67	2	1	.	.	.	.	.	.	.	.	.	.	.	.	.	.
55_id	206.00	9	7	2	222	space	2.36871979374	cr	True	55_id	True	Cats	624.07	3	85	NA	NA
55_id	371.00	2	1	.	.	.	.	.	.	.	.	.	.	.	.	.	.
55_id	218.80	10	6	2	270	space	2.58972660609	cr	False	55_id	False	Cats	630.01	3	86	2	18.86
55_id	622.00	0	1	.	.	.	.	.	.	.	.	.	.	.	.	.	.
55_id	196.15	13	9	2	73	space	3.04070356273	cr	False	55_id	False	Cats	639.19	3	87	NA	NA
55_id	192.67	2	1	.	.	.	.	.	.	.	.	.	.	.	.	.	.
55_id	235.50	9	5	2	109	return	2.80773537775	hi	False	55_id	True	Cats	645.68	3	88	NA	NA
55_id	384.00	1	1	.	.	.	.	.	.	.	.	.	.	.	.	.	.
55_id	237.43	13	8	2	173	space	3.85267043364	cr	False	55_id	False	Cats	652.21	3	89	0	20.85
55_id	1008.00	0	1	.	.	.	.	.	.	.	.	.	.	.	.	.	.
55_id	163.33	11	7	2	35	space	2.30206461239	cr	False	55_id	False	Cats	661.54	3	90	NA	NA
55_id	1014.00	0	1	.	.	.	.	.	.	.	.	.	.	.	.	.	.
55_id	165.67	11	7	2	157	space	2.29391686199	cr	False	55_id	False	Cats	667.28	3	91	NA	NA
55_id	397.00	1	1	.	.	.	.	.	.	.	.	.	.	.	.	.	.
55_id	254.95	20	9	2	253	space	6.16109584819	cr	False	55_id	False	Cats	673.04	3	92	NA	NA
55_id	335.00	1	1	.	.	.	.	.	.	.	.	.	.	.	.	.	.
55_id	240.67	11	8	2	279	space	3.26935704693	cr	False	55_id	False	Cats	682.98	3	93	0	28.46
55_id	828.00	1	1	.	.	.	.	.	.	.	.	.	.	.	.	.	.
55_id	217.85	12	5	2	220	space	4.05028307089	cr	False	55_id	False	Cats	691.94	3	94	NA	NA
55_id	1012.00	0	1	.	.	.	.	.	.	.	.	.	.	.	.	.	.
55_id	203.60	14	9	2	248	space	3.6582244517	cr	False	55_id	False	Cats	699.56	3	95	NA	NA
55_id	870.00	1	1	.	.	.	.	.	.	.	.	.	.	.	.	.	.
55_id	422.56	17	6	2	45	return	8.71058808005	hi	False	55_id	True	Cats	706.83	3	96	0	27.26
55_id	1008.00	0	1	.	.	.	.	.	.	.	.	.	.	.	.	.	.
55_id	202.73	10	7	2	62	space	2.53958135931	cr	False	55_id	False	Cats	721.26	3	97	NA	NA
55_id	1014.00	0	1	.	.	.	.	.	.	.	.	.	.	.	.	.	.
55_id	208.67	8	5	2	227	space	2.09074030968	cr	False	55_id	False	Cats	727.25	3	98	NA	NA
55_id	1012.00	0	1	.	.	.	.	.	.	.	.	.	.	.	.	.	.
55_id	224.00	14	8	2	121	space	3.72324737045	cr	False	55_id	False	Cats	732.82	3	99	NA	NA
55_id	404.00	1	1	.	.	.	.	.	.	.	.	.	.	.	.	.	.
55_id	213.80	9	8	2	259	space	2.38679637772	cr	False	55_id	False	Cats	740.16	3	100	0	24.76
55_id	1012.00	0	1	.	.	.	.	.	.	.	.	.	.	.	.	.	.
55_id	429.50	11	7	2	97	space	5.59660021664	cr	False	55_id	False	Cats	747.85	3	101	NA	NA
55_id	898.00	1	1	.	.	.	.	.	.	.	.	.	.	.	.	.	.
55_id	485.44	17	8	2	118	space	9.54382164974	cr	False	55_id	False	Cats	757.35	3	102	NA	NA
55_id	107.50	3	1	.	.	.	.	.	.	.	.	.	.	.	.	.	.
55_id	200.80	9	8	2	18	space	2.31060824048	cr	False	55_id	False	Cats	770.48	3	103	NA	NA
55_id	391.00	2	1	.	.	.	.	.	.	.	.	.	.	.	.	.	.
55_id	225.50	16	10	2	294	space	4.25122511334	cr	False	55_id	False	Cats	776.27	3	104	2	36.15
55_id	403.00	1	1	.	.	.	.	.	.	.	.	.	.	.	.	.	.
55_id	251.33	5	4	2	144	return	1.98498780292	fa	True	55_id	True	Cats	786.13	3	105	NA	NA
55_id	365.00	1	1	.	.	.	.	.	.	.	.	.	.	.	.	.	.
55_id	222.17	11	9	2	17	space	2.96461146249	cr	False	55_id	False	Cats	791.57	3	106	NA	NA
55_id	393.00	1	1	.	.	.	.	.	.	.	.	.	.	.	.	.	.
55_id	218.18	11	7	2	238	space	2.8237306712	cr	False	55_id	False	Cats	798.2	3	107	NA	NA
55_id	258.00	1	1	.	.	.	.	.	.	.	.	.	.	.	.	.	.
55_id	328.00	5	4	2	94	return	2.12570877693	fa	True	55_id	True	Cats	804.64	3	108	0	24.14
55_id	894.00	1	1	.	.	.	.	.	.	.	.	.	.	.	.	.	.
55_id	388.00	2	2	2	9	return	1.16773559764	hi	False	55_id	True	Cats	812.53	3	109	NA	NA
55_id	1014.00	0	1	.	.	.	.	.	.	.	.	.	.	.	.	.	.
55_id	220.67	11	8	2	70	space	3.11142565467	cr	False	55_id	False	Cats	817.15	3	110	NA	NA
55_id	926.00	1	1	.	.	.	.	.	.	.	.	.	.	.	.	.	.
55_id	382.80	9	7	2	141	return	4.52446836	hi	False	55_id	True	Cats	823.72	3	111	NA	NA
55_id	160.00	2	1	.	.	.	.	.	.	.	.	.	.	.	.	.	.
55_id	382.00	2	3	2	29	return	1.14684864826	hi	False	55_id	True	Cats	831.71	3	112	NA	NA
55_id	1006.00	0	1	.	.	.	.	.	.	.	.	.	.	.	.	.	.
55_id	222.73	10	9	2	106	space	2.75884704274	cr	False	55_id	False	Cats	836.55	3	113	0	30.36
55_id	1010.00	0	1	.	.	.	.	.	.	.	.	.	.	.	.	.	.
55_id	226.89	8	8	2	162	space	2.34189541131	cr	False	55_id	False	Cats	844.47	3	114	NA	NA
55_id	1012.00	0	1	.	.	.	.	.	.	.	.	.	.	.	.	.	.
55_id	272.14	14	7	2	149	space	4.52211508679	cr	False	55_id	False	Cats	850.28	3	115	NA	NA
55_id	1032.00	0	1	.	.	.	.	.	.	.	.	.	.	.	.	.	.
55_id	227.25	8	7	2	41	space	2.16853321798	cr	False	55_id	False	Cats	858.3	3	116	NA	NA
55_id	330.00	2	1	.	.	.	.	.	.	.	.	.	.	.	.	.	.
55_id	182.50	15	10	2	33	space	3.49691307003	cr	False	55_id	False	Cats	864.07	3	117	NA	NA
55_id	1008.00	0	1	.	.	.	.	.	.	.	.	.	.	.	.	.	.
55_id	209.25	7	7	2	26	space	1.95537578146	cr	False	55_id	False	Cats	871.24	3	118	0	32.2
55_id	430.00	1	1	.	.	.	.	.	.	.	.	.	.	.	.	.	.
55_id	206.91	10	8	2	264	space	2.60744690016	cr	False	55_id	False	Cats	878.38	3	119	NA	NA
55_id	419.00	1	1	.	.	.	.	.	.	.	.	.	.	.	.	.	.
55_id	277.44	17	9	2	77	space	5.57921275316	cr	False	55_id	False	Cats	884.64	3	120	NA	NA
55_id	1012.00	0	1	.	.	.	.	.	.	.	.	.	.	.	.	.	.
55_id	174.43	13	9	2	122	space	2.88451843121	cr	False	55_id	False	Cats	893.7	3	121	0	21.69
55_id	447.00	1	1	.	.	.	.	.	.	.	.	.	.	.	.	.	.
55_id	188.53	14	10	2	204	space	3.31646246585	cr	False	55_id	False	Cats	901.73	3	122	NA	NA
55_id	214.00	2	1	.	.	.	.	.	.	.	.	.	.	.	.	.	.
55_id	168.60	10	6	2	39	space	1.97450144147	cr	False	55_id	False	Cats	908.79	3	123	NA	NA
55_id	341.00	1	1	.	.	.	.	.	.	.	.	.	.	.	.	.	.
55_id	208.80	9	7	2	128	space	2.37406414317	cr	False	55_id	False	Cats	914.29	3	124	NA	NA
55_id	34.00	1	1	.	.	.	.	.	.	.	.	.	.	.	.	.	.
55_id	250.80	4	2	2	93	return	2.07454487804	hi	False	55_id	True	Cats	920.18	3	125	NA	NA
55_id	426.00	1	1	.	.	.	.	.	.	.	.	.	.	.	.	.	.
55_id	268.80	10	7	2	159	space	3.13603568764	cr	False	55_id	False	Cats	926.15	3	126	1	31.04
55_id	1012.00	0	1	.	.	.	.	.	.	.	.	.	.	.	.	.	.
55_id	157.45	10	8	2	151	space	2.04237724585	cr	False	55_id	False	Cats	935.23	3	127	NA	NA
55_id	1010.00	0	1	.	.	.	.	.	.	.	.	.	.	.	.	.	.
55_id	169.82	10	7	2	263	space	2.19870240072	cr	False	55_id	False	Cats	940.73	3	128	NA	NA
55_id	1014.00	0	1	.	.	.	.	.	.	.	.	.	.	.	.	.	.
55_id	175.23	12	8	2	273	space	2.5966431034	cr	False	55_id	False	Cats	946.4	3	129	0	17.26
55_id	1012.00	0	1	.	.	.	.	.	.	.	.	.	.	.	.	.	.
55_id	208.00	8	5	2	90	return	2.51305535145	fa	True	55_id	True	Cats	954.41	3	130	NA	NA
55_id	408.00	1	1	.	.	.	.	.	.	.	.	.	.	.	.	.	.
55_id	242.47	16	11	2	68	space	4.63717511907	cr	False	55_id	False	Cats	960.38	3	131	NA	NA
55_id	412.00	1	1	.	.	.	.	.	.	.	.	.	.	.	.	.	.
55_id	172.36	10	7	2	44	space	2.16791667504	cr	False	55_id	False	Cats	968.49	3	132	0	19.73
55_id	848.00	1	1	.	.	.	.	.	.	.	.	.	.	.	.	.	.
55_id	195.67	11	8	2	172	space	2.82804867096	cr	False	55_id	False	Cats	975.91	3	133	NA	NA
55_id	231.00	2	1	.	.	.	.	.	.	.	.	.	.	.	.	.	.
55_id	668.00	8	6	2	257	return	6.30504835758	hi	False	55_id	True	Cats	982.19	3	134	NA	NA
55_id	111.33	3	1	.	.	.	.	.	.	.	.	.	.	.	.	.	.
55_id	198.33	11	7	2	31	space	2.68169047125	cr	False	55_id	False	Cats	991.96	3	135	NA	NA
55_id	389.00	1	1	.	.	.	.	.	.	.	.	.	.	.	.	.	.
55_id	188.11	19	9	2	140	space	4.28818763141	cr	False	55_id	False	Cats	998.11	3	136	0	29.95
55_id	315.00	2	1	.	.	.	.	.	.	.	.	.	.	.	.	.	.
55_id	317.00	4	3	2	251	return	1.66134308855	hi	False	55_id	True	Cats	1007.67	3	137	NA	NA
55_id	1016.00	0	1	.	.	.	.	.	.	.	.	.	.	.	.	.	.
55_id	231.56	8	6	2	155	space	2.29784631514	cr	False	55_id	False	Cats	1012.81	3	138	NA	NA
55_id	1018.00	0	1	.	.	.	.	.	.	.	.	.	.	.	.	.	.
55_id	376.00	12	8	2	244	space	5.32788757072	cr	False	55_id	False	Cats	1018.6	3	139	NA	NA
55_id	1008.00	0	1	.	.	.	.	.	.	.	.	.	.	.	.	.	.
55_id	211.64	10	8	2	3	space	2.60840580403	cr	False	55_id	False	Cats	1027.56	3	140	0	26.0
55_id	1014.00	0	1	.	.	.	.	.	.	.	.	.	.	.	.	.	.
55_id	190.17	11	7	2	152	space	2.98979515163	cr	False	55_id	False	Cats	1035.92	3	141	NA	NA
55_id	1004.00	0	1	.	.	.	.	.	.	.	.	.	.	.	.	.	.
55_id	194.00	10	7	2	197	space	2.40201934299	cr	False	55_id	False	Cats	1042.43	3	142	NA	NA
55_id	396.00	1	1	.	.	.	.	.	.	.	.	.	.	.	.	.	.
55_id	497.27	10	8	2	124	space	5.87373002974	cr	False	55_id	False	Cats	1048.67	3	143	0	22.11
55_id	402.00	1	1	.	.	.	.	.	.	.	.	.	.	.	.	.	.
55_id	469.50	15	7	2	175	return	8.88470647315	hi	False	55_id	True	Cats	1059.96	3	144	NA	NA
55_id	356.00	2	1	.	.	.	.	.	.	.	.	.	.	.	.	.	.
55_id	219.43	13	10	2	167	space	3.47392356995	cr	False	55_id	False	Cats	1072.48	3	145	NA	NA
55_id	974.00	1	1	.	.	.	.	.	.	.	.	.	.	.	.	.	.
55_id	200.86	13	10	2	187	space	3.20696085028	cr	False	55_id	False	Cats	1079.56	3	146	0	26.35
55_id	802.00	0	1	.	.	.	.	.	.	.	.	.	.	.	.	.	.
55_id	194.80	9	8	2	4	space	2.19431768818	cr	False	55_id	False	Cats	1088.01	3	147	NA	NA
55_id	1012.00	0	1	.	.	.	.	.	.	.	.	.	.	.	.	.	.
55_id	221.85	13	8	2	181	space	3.90570998652	cr	False	55_id	False	Cats	1093.67	3	148	NA	NA
55_id	1014.00	0	1	.	.	.	.	.	.	.	.	.	.	.	.	.	.
55_id	172.00	4	2	2	103	return	1.25623443298	hi	False	55_id	True	Cats	1101.05	3	149	NA	NA
55_id	1014.00	0	1	.	.	.	.	.	.	.	.	.	.	.	.	.	.
55_id	488.56	17	9	2	201	return	9.65773876832	fa	False	55_id	False	Cats	1105.76	3	150	1	30.87
55_id	312.00	1	1	.	.	.	.	.	.	.	.	.	.	.	.	.	.
55_id	205.33	8	8	2	56	space	2.14193683182	cr	False	55_id	False	Cats	1124.24	3	151	NA	NA
55_id	200.67	2	1	.	.	.	.	.	.	.	.	.	.	.	.	.	.
55_id	206.00	9	7	2	74	space	2.23519499728	cr	False	55_id	False	Cats	1129.86	3	152	NA	NA
55_id	345.00	1	1	.	.	.	.	.	.	.	.	.	.	.	.	.	.
55_id	211.00	9	9	2	229	space	2.33658515126	cr	False	55_id	False	Cats	1136.0	3	153	NA	NA
55_id	720.00	0	1	.	.	.	.	.	.	.	.	.	.	.	.	.	.
55_id	192.60	10	6	2	88	space	2.21851791436	cr	False	55_id	False	Cats	1141.81	3	154	NA	NA
55_id	401.00	1	1	.	.	.	.	.	.	.	.	.	.	.	.	.	.
55_id	167.54	12	8	2	190	space	2.59095749259	cr	False	55_id	False	Cats	1147.99	3	155	1	29.78
55_id	1012.00	0	1	.	.	.	.	.	.	.	.	.	.	.	.	.	.
55_id	354.15	12	8	2	81	return	5.40889441973	fa	False	55_id	False	Cats	1156.62	3	156	NA	NA
55_id	389.00	1	1	.	.	.	.	.	.	.	.	.	.	.	.	.	.
55_id	160.18	10	8	2	215	space	2.07850218925	cr	False	55_id	False	Cats	1165.47	3	157	NA	NA
55_id	840.00	1	1	.	.	.	.	.	.	.	.	.	.	.	.	.	.
55_id	248.18	10	8	2	16	space	3.30276582914	cr	False	55_id	False	Cats	1170.98	3	158	NA	NA
55_id	664.00	2	1	.	.	.	.	.	.	.	.	.	.	.	.	.	.
55_id	208.67	9	7	2	37	space	2.15189242392	cr	False	55_id	False	Cats	1177.72	3	159	NA	NA
55_id	390.00	1	1	.	.	.	.	.	.	.	.	.	.	.	.	.	.
55_id	222.92	12	8	2	117	space	3.44019185408	cr	False	55_id	False	Cats	1183.3	3	160	0	33.59
55_id	402.00	1	1	.	.	.	.	.	.	.	.	.	.	.	.	.	.
55_id	285.54	13	9	2	164	space	4.16667112638	cr	False	55_id	False	Cats	1192.34	3	161	NA	NA
55_id	396.00	1	1	.	.	.	.	.	.	.	.	.	.	.	.	.	.
55_id	454.00	2	2	2	130	return	1.10521660559	hi	False	55_id	True	Cats	1200.07	3	162	NA	NA
55_id	246.00	2	1	.	.	.	.	.	.	.	.	.	.	.	.	.	.
55_id	195.00	9	7	2	46	space	2.28308374097	cr	False	55_id	False	Cats	1204.65	3	163	NA	NA
55_id	760.00	1	1	.	.	.	.	.	.	.	.	.	.	.	.	.	.
55_id	565.00	1	2	2	199	return	1.06938967016	hi	False	55_id	True	Cats	1210.37	3	164	NA	NA
55_id	1018.00	0	1	.	.	.	.	.	.	.	.	.	.	.	.	.	.
55_id	175.27	10	6	2	235	space	2.25673404534	cr	False	55_id	False	Cats	1214.92	3	165	0	28.3
55_id	1012.00	0	1	.	.	.	.	.	.	.	.	.	.	.	.	.	.
55_id	169.75	7	8	2	135	space	1.58463994367	cr	False	55_id	False	Cats	1222.85	3	166	NA	NA
55_id	1004.00	0	1	.	.	.	.	.	.	.	.	.	.	.	.	.	.
55_id	181.09	10	9	2	281	space	2.27584321046	cr	False	55_id	False	Cats	1228.09	3	167	NA	NA
55_id	1012.00	0	1	.	.	.	.	.	.	.	.	.	.	.	.	.	.
55_id	184.20	9	8	2	52	space	2.13513799821	cr	False	55_id	False	Cats	1233.86	3	168	NA	NA
55_id	344.00	2	1	.	.	.	.	.	.	.	.	.	.	.	.	.	.
55_id	237.78	8	8	2	1	space	2.40213407425	cr	False	55_id	False	Cats	1239.45	3	169	0	22.44
55_id	1014.00	0	1	.	.	.	.	.	.	.	.	.	.	.	.	.	.
55_id	236.22	9	7	2	212	space	2.43925934203	cr	False	55_id	False	Cats	1247.07	3	170	NA	NA
55_id	748.00	0	1	.	.	.	.	.	.	.	.	.	.	.	.	.	.
55_id	237.57	13	8	2	195	space	3.77381268755	cr	False	55_id	False	Cats	1253.13	3	171	NA	NA
55_id	357.00	1	1	.	.	.	.	.	.	.	.	.	.	.	.	.	.
55_id	266.62	12	9	2	48	return	3.83998768381	fa	True	55_id	True	Cats	1260.61	3	172	0	20.84
55_id	1016.00	0	1	.	.	.	.	.	.	.	.	.	.	.	.	.	.
55_id	209.60	9	8	2	218	space	2.39222063584	cr	False	55_id	False	Cats	1269.97	3	173	NA	NA
55_id	391.00	1	1	.	.	.	.	.	.	.	.	.	.	.	.	.	.
55_id	179.17	11	9	2	286	space	2.53995817626	cr	False	55_id	False	Cats	1275.83	3	174	NA	NA
55_id	379.00	1	1	.	.	.	.	.	.	.	.	.	.	.	.	.	.
55_id	247.40	9	6	2	54	return	2.67948455253	fa	True	55_id	True	Cats	1282.0	3	175	1	18.2
55_id	1014.00	0	1	.	.	.	.	.	.	.	.	.	.	.	.	.	.
55_id	224.00	13	8	2	243	space	3.38624104921	cr	False	55_id	False	Cats	1290.09	3	176	NA	NA
55_id	1014.00	0	1	.	.	.	.	.	.	.	.	.	.	.	.	.	.
55_id	338.50	3	3	2	245	return	1.38818818127	fa	True	55_id	True	Cats	1296.93	3	177	NA	NA
55_id	1014.00	0	1	.	.	.	.	.	.	.	.	.	.	.	.	.	.
55_id	144.60	9	7	2	202	space	1.79253037355	cr	False	55_id	False	Cats	1301.8	3	178	NA	NA
55_id	1014.00	0	1	.	.	.	.	.	.	.	.	.	.	.	.	.	.
55_id	198.00	10	8	2	86	space	2.49414485821	cr	False	55_id	False	Cats	1307.05	3	179	NA	NA
55_id	1010.00	0	1	.	.	.	.	.	.	.	.	.	.	.	.	.	.
55_id	197.33	8	7	2	265	return	1.99212020024	hi	False	55_id	True	Cats	1313.22	3	180	0	28.6
55_id	1014.00	0	1	.	.	.	.	.	.	.	.	.	.	.	.	.	.
55_id	248.67	9	7	2	30	return	2.83037738514	hi	False	55_id	True	Cats	1320.39	3	181	NA	NA
55_id	416.00	1	1	.	.	.	.	.	.	.	.	.	.	.	.	.	.
55_id	183.82	10	7	2	51	space	2.35204930877	cr	False	55_id	False	Cats	1326.68	3	182	NA	NA
55_id	726.00	0	1	.	.	.	.	.	.	.	.	.	.	.	.	.	.
55_id	234.55	10	8	2	8	space	2.90984141064	cr	False	55_id	False	Cats	1332.48	3	183	NA	NA
55_id	341.00	1	1	.	.	.	.	.	.	.	.	.	.	.	.	.	.
55_id	171.75	16	8	2	299	space	3.43623710878	cr	False	55_id	False	Cats	1339.21	3	184	0	25.71
55_id	364.00	1	1	.	.	.	.	.	.	.	.	.	.	.	.	.	.
55_id	191.00	9	8	2	108	space	2.17303779349	cr	False	55_id	False	Cats	1348.73	3	185	NA	NA
55_id	1014.00	0	1	.	.	.	.	.	.	.	.	.	.	.	.	.	.
55_id	219.20	4	4	2	277	space	1.18442441028	cr	False	55_id	False	Cats	1354.57	3	186	NA	NA
55_id	422.00	1	1	.	.	.	.	.	.	.	.	.	.	.	.	.	.
55_id	194.67	11	8	2	79	space	2.69700177596	cr	False	55_id	False	Cats	1359.21	3	187	NA	NA
55_id	1014.00	0	1	.	.	.	.	.	.	.	.	.	.	.	.	.	.
55_id	281.60	9	7	2	14	space	3.14452689863	cr	False	55_id	False	Cats	1365.35	3	188	0	23.23
55_id	1014.00	0	1	.	.	.	.	.	.	.	.	.	.	.	.	.	.
55_id	160.50	11	7	2	32	space	2.25393101096	cr	False	55_id	False	Cats	1375.67	3	189	NA	NA
55_id	1014.00	0	1	.	.	.	.	.	.	.	.	.	.	.	.	.	.
55_id	208.50	11	9	2	282	space	2.86715186125	cr	False	55_id	False	Cats	1381.41	3	190	NA	NA
55_id	399.00	1	1	.	.	.	.	.	.	.	.	.	.	.	.	.	.
55_id	180.44	9	7	2	285	space	1.92257584451	cr	False	55_id	False	Cats	1388.07	3	191	1	17.79
55_id	1014.00	0	1	.	.	.	.	.	.	.	.	.	.	.	.	.	.
55_id	220.53	14	9	2	169	space	3.84908847319	cr	False	55_id	False	Cats	1395.99	3	192	NA	NA
55_id	802.00	1	1	.	.	.	.	.	.	.	.	.	.	.	.	.	.
55_id	236.40	5	4	2	250	return	2.06392875669	fa	True	55_id	True	Cats	1403.31	3	193	NA	NA
55_id	740.00	1	1	.	.	.	.	.	.	.	.	.	.	.	.	.	.
55_id	306.89	8	7	2	66	return	2.98133656388	hi	False	55_id	True	Cats	1408.92	3	194	0	19.37
55_id	1016.00	0	1	.	.	.	.	.	.	.	.	.	.	.	.	.	.
55_id	359.44	17	9	2	163	space	7.35965309385	cr	False	55_id	False	Cats	1417.32	3	195	NA	NA
55_id	78.00	3	1	.	.	.	.	.	.	.	.	.	.	.	.	.	.
55_id	385.00	3	3	2	107	return	1.98499733332	hi	False	55_id	True	Cats	1428.15	3	196	NA	NA
55_id	1012.00	0	1	.	.	.	.	.	.	.	.	.	.	.	.	.	.
55_id	385.67	17	7	2	112	space	7.77670369466	cr	False	55_id	False	Cats	1433.58	3	197	0	27.67
55_id	268.00	2	1	.	.	.	.	.	.	.	.	.	.	.	.	.	.
55_id	224.22	8	7	2	214	space	2.29016298801	cr	False	55_id	False	Cats	1447.2	3	198	NA	NA
55_id	267.33	2	1	.	.	.	.	.	.	.	.	.	.	.	.	.	.
55_id	151.60	14	9	2	142	space	2.680927307	cr	False	55_id	False	Cats	1452.93	3	199	NA	NA
55_id	148.00	2	1	.	.	.	.	.	.	.	.	.	.	.	.	.	.
55_id	321.33	2	2	2	145	return	0.922807139694	hi	False	55_id	True	Cats	1459.19	3	200	NA	NA
55_id	1014.00	0	1	.	.	.	.	.	.	.	.	.	.	.	.	.	.
55_id	207.29	13	9	2	148	space	3.37404178345	cr	False	55_id	False	Cats	1463.57	3	201	0	23.22
55_id	372.00	1	1	.	.	.	.	.	.	.	.	.	.	.	.	.	.
55_id	187.82	10	8	2	260	space	2.32212571683	cr	False	55_id	False	Cats	1472.27	3	202	NA	NA
55_id	1012.00	0	1	.	.	.	.	.	.	.	.	.	.	.	.	.	.
55_id	212.55	10	10	2	208	space	2.67793439794	cr	False	55_id	False	Cats	1478.2	3	203	NA	NA
55_id	808.00	0	1	.	.	.	.	.	.	.	.	.	.	.	.	.	.
55_id	184.67	11	9	2	203	space	2.54488025617	cr	False	55_id	False	Cats	1484.34	3	204	NA	NA
55_id	784.00	1	1	.	.	.	.	.	.	.	.	.	.	.	.	.	.
55_id	213.67	11	7	2	209	space	2.95883531298	cr	False	55_id	False	Cats	1490.34	3	205	NA	NA
55_id	1012.00	0	1	.	.	.	.	.	.	.	.	.	.	.	.	.	.
55_id	252.40	9	7	2	296	space	2.79570289375	cr	False	55_id	False	Cats	1496.78	3	206	0	30.9
55_id	732.00	0	1	.	.	.	.	.	.	.	.	.	.	.	.	.	.
55_id	205.45	10	6	2	57	space	2.50827036251	cr	False	55_id	False	Cats	1504.67	3	207	NA	NA
55_id	1006.00	0	1	.	.	.	.	.	.	.	.	.	.	.	.	.	.
55_id	239.78	8	7	2	234	space	2.39755875396	cr	False	55_id	False	Cats	1511.43	3	208	NA	NA
55_id	317.00	2	1	.	.	.	.	.	.	.	.	.	.	.	.	.	.
55_id	230.67	11	8	2	102	space	3.07541104389	cr	False	55_id	False	Cats	1517.28	3	209	0	19.16
55_id	1012.00	0	1	.	.	.	.	.	.	.	.	.	.	.	.	.	.
55_id	227.33	8	8	2	193	space	2.31906572852	cr	False	55_id	False	Cats	1525.91	3	210	NA	NA
55_id	1012.00	0	1	.	.	.	.	.	.	.	.	.	.	.	.	.	.
55_id	215.12	15	11	2	6	space	4.02627125318	cr	False	55_id	False	Cats	1531.69	3	211	NA	NA
55_id	1012.00	0	1	.	.	.	.	.	.	.	.	.	.	.	.	.	.
55_id	221.50	11	9	2	178	space	3.05712332507	cr	False	55_id	False	Cats	1539.17	3	212	NA	NA
55_id	1014.00	0	1	.	.	.	.	.	.	.	.	.	.	.	.	.	.
55_id	316.67	3	3	2	188	return	1.53344818676	hi	False	55_id	True	Cats	1545.69	3	213	0	24.79
55_id	1012.00	0	1	.	.	.	.	.	.	.	.	.	.	.	.	.	.
55_id	245.00	7	8	2	200	space	2.17432329647	cr	False	55_id	False	Cats	1553.36	3	214	NA	NA
55_id	1014.00	0	1	.	.	.	.	.	.	.	.	.	.	.	.	.	.
55_id	330.67	3	2	2	161	return	1.16033524979	hi	False	55_id	True	Cats	1559.0	3	215	NA	NA
55_id	134.40	4	1	.	.	.	.	.	.	.	.	.	.	.	.	.	.
55_id	187.82	10	9	2	60	space	2.52289437945	mi	False	55_id	True	Cats	1563.62	3	216	NA	NA
55_id	1010.00	0	1	.	.	.	.	.	.	.	.	.	.	.	.	.	.
55_id	190.60	10	8	2	99	space	2.27487184375	cr	False	55_id	False	Cats	1569.62	3	217	NA	NA
55_id	1002.00	0	1	.	.	.	.	.	.	.	.	.	.	.	.	.	.
55_id	171.60	9	7	2	138	space	1.96830192272	cr	False	55_id	False	Cats	1575.45	3	218	0	28.11
55_id	1014.00	0	1	.	.	.	.	.	.	.	.	.	.	.	.	.	.
55_id	215.00	9	9	2	27	space	2.45452299481	cr	False	55_id	False	Cats	1583.0	3	219	NA	NA
55_id	1012.00	0	1	.	.	.	.	.	.	.	.	.	.	.	.	.	.
55_id	194.80	4	3	2	300	return	1.14972206089	hi	False	55_id	True	Cats	1588.92	3	220	NA	NA
55_id	1012.00	0	1	.	.	.	.	.	.	.	.	.	.	.	.	.	.
55_id	166.60	10	7	2	252	space	2.01493888639	cr	False	55_id	False	Cats	1593.52	3	221	NA	NA
55_id	1014.00	0	1	.	.	.	.	.	.	.	.	.	.	.	.	.	.
55_id	140.80	9	7	2	19	space	1.62273071334	cr	False	55_id	False	Cats	1599.01	3	222	0	21.13
55_id	1012.00	0	1	.	.	.	.	.	.	.	.	.	.	.	.	.	.
55_id	276.40	4	3	2	236	return	1.55135908857	hi	False	55_id	True	Cats	1606.15	3	223	NA	NA
55_id	1012.00	0	1	.	.	.	.	.	.	.	.	.	.	.	.	.	.
55_id	162.00	11	8	2	246	space	2.29110906244	cr	False	55_id	False	Cats	1611.16	3	224	NA	NA
55_id	438.00	1	1	.	.	.	.	.	.	.	.	.	.	.	.	.	.
55_id	201.17	11	7	2	191	return	2.89074067626	fa	True	55_id	True	Cats	1617.16	3	225	0	17.37
55_id	1014.00	0	1	.	.	.	.	.	.	.	.	.	.	.	.	.	.
55_id	160.50	11	8	2	2	space	2.27624568617	cr	False	55_id	False	Cats	1625.47	3	226	NA	NA
55_id	258.67	2	1	.	.	.	.	.	.	.	.	.	.	.	.	.	.
55_id	131.64	10	6	2	143	space	1.83906580188	cr	False	55_id	False	Cats	1631.19	3	227	NA	NA
55_id	1012.00	0	1	.	.	.	.	.	.	.	.	.	.	.	.	.	.
55_id	262.73	10	7	2	185	space	3.50369797461	cr	False	55_id	False	Cats	1636.51	3	228	NA	NA
55_id	385.00	1	1	.	.	.	.	.	.	.	.	.	.	.	.	.	.
55_id	186.80	9	9	2	223	space	2.21849922015	cr	False	55_id	False	Cats	1643.69	3	229	NA	NA
55_id	431.00	1	1	.	.	.	.	.	.	.	.	.	.	.	.	.	.
55_id	180.80	9	8	2	233	space	2.11874132877	cr	False	55_id	False	Cats	1649.34	3	230	1	29.45
55_id	1014.00	0	1	.	.	.	.	.	.	.	.	.	.	.	.	.	.
55_id	417.33	11	5	2	247	space	5.62811245129	cr	False	55_id	False	Cats	1657.88	3	231	NA	NA
55_id	331.33	2	1	.	.	.	.	.	.	.	.	.	.	.	.	.	.
55_id	199.45	11	7	2	170	space	2.55770192976	cr	False	55_id	False	Cats	1666.95	3	232	NA	NA
55_id	1016.00	0	1	.	.	.	.	.	.	.	.	.	.	.	.	.	.
55_id	156.67	9	7	2	38	space	1.74328501552	cr	False	55_id	False	Cats	1673.17	3	233	NA	NA
55_id	1012.00	0	1	.	.	.	.	.	.	.	.	.	.	.	.	.	.
55_id	220.00	7	7	2	290	return	2.38612375211	hi	False	55_id	True	Cats	1678.38	3	234	NA	NA
55_id	1016.00	0	1	.	.	.	.	.	.	.	.	.	.	.	.	.	.
55_id	164.00	10	9	2	65	space	2.13904655777	cr	False	55_id	False	Cats	1684.51	3	235	0	32.22
55_id	1014.00	0	1	.	.	.	.	.	.	.	.	.	.	.	.	.	.
55_id	192.50	7	8	2	158	space	1.76962921285	cr	False	55_id	False	Cats	1693.21	3	236	NA	NA
55_id	1014.00	0	1	.	.	.	.	.	.	.	.	.	.	.	.	.	.
55_id	151.25	8	6	2	137	space	1.739380488	cr	False	55_id	False	Cats	1698.42	3	237	NA	NA
55_id	396.00	1	1	.	.	.	.	.	.	.	.	.	.	.	.	.	.
55_id	415.88	16	6	2	261	space	7.5479629708	cr	False	55_id	False	Cats	1703.65	3	238	0	21.71
55_id	406.00	1	1	.	.	.	.	.	.	.	.	.	.	.	.	.	.
55_id	175.83	11	8	2	96	space	2.74534028076	cr	False	55_id	False	Cats	1717.12	3	239	NA	NA
55_id	1010.00	0	1	.	.	.	.	.	.	.	.	.	.	.	.	.	.
55_id	189.00	9	6	2	13	space	2.24612525501	cr	False	55_id	False	Cats	1723.31	3	240	NA	NA
55_id	414.00	1	1	.	.	.	.	.	.	.	.	.	.	.	.	.	.
55_id	360.29	6	5	2	24	return	2.78854630399	hi	False	55_id	True	Cats	1729.0	3	241	0	18.15
55_id	740.00	2	1	.	.	.	.	.	.	.	.	.	.	.	.	.	.
55_id	164.36	10	7	2	196	space	2.1418481259	cr	False	55_id	False	Cats	1738.06	3	242	NA	NA
55_id	181.33	2	1	.	.	.	.	.	.	.	.	.	.	.	.	.	.
55_id	172.18	10	8	2	269	space	2.25190287066	cr	False	55_id	False	Cats	1743.64	3	243	NA	NA
55_id	253.00	2	1	.	.	.	.	.	.	.	.	.	.	.	.	.	.
55_id	286.50	3	3	2	7	return	1.40122208925	fa	True	55_id	True	Cats	1749.31	3	244	NA	NA
55_id	1010.00	0	1	.	.	.	.	.	.	.	.	.	.	.	.	.	.
55_id	179.82	10	6	2	104	space	2.23868092068	cr	False	55_id	False	Cats	1754.47	3	245	NA	NA
55_id	1014.00	0	1	.	.	.	.	.	.	.	.	.	.	.	.	.	.
55_id	203.14	6	6	2	266	space	1.57138390426	cr	False	55_id	False	Cats	1760.17	3	246	NA	NA
55_id	1012.00	0	1	.	.	.	.	.	.	.	.	.	.	.	.	.	.
55_id	225.00	13	10	2	216	space	3.67449356057	cr	False	55_id	False	Cats	1765.23	3	247	1	34.81
55_id	375.00	1	1	.	.	.	.	.	.	.	.	.	.	.	.	.	.
55_id	196.50	11	7	2	298	space	2.72726296366	cr	False	55_id	False	Cats	1774.69	3	248	NA	NA
55_id	411.00	1	1	.	.	.	.	.	.	.	.	.	.	.	.	.	.
55_id	180.00	10	9	2	249	space	2.27249657729	cr	False	55_id	False	Cats	1780.87	3	249	NA	NA
55_id	846.00	1	1	.	.	.	.	.	.	.	.	.	.	.	.	.	.
55_id	261.60	9	7	2	150	space	2.95716896094	cr	False	55_id	False	Cats	1786.61	3	250	NA	NA
55_id	1012.00	0	1	.	.	.	.	.	.	.	.	.	.	.	.	.	.
55_id	184.55	11	7	2	110	space	2.43051410955	cr	False	55_id	False	Cats	1793.03	3	251	NA	NA
55_id	369.00	1	1	.	.	.	.	.	.	.	.	.	.	.	.	.	.
55_id	183.50	11	7	2	176	space	2.60211867903	cr	False	55_id	False	Cats	1798.94	3	252	0	30.29
55_id	1012.00	0	1	.	.	.	.	.	.	.	.	.	.	.	.	.	.
55_id	176.18	10	6	2	192	space	2.28523907531	cr	False	55_id	False	Cats	1807.31	3	253	NA	NA
55_id	381.00	1	1	.	.	.	.	.	.	.	.	.	.	.	.	.	.
55_id	180.46	12	9	2	198	space	2.76239564677	cr	False	55_id	False	Cats	1813.05	3	254	NA	NA
55_id	1016.00	0	1	.	.	.	.	.	.	.	.	.	.	.	.	.	.
55_id	215.60	9	7	2	116	space	2.35700474505	cr	False	55_id	False	Cats	1819.44	3	255	NA	NA
55_id	1016.00	0	1	.	.	.	.	.	.	.	.	.	.	.	.	.	.
55_id	166.46	12	10	2	154	space	2.5729340589	cr	False	55_id	False	Cats	1825.27	3	256	NA	NA
55_id	1012.00	0	1	.	.	.	.	.	.	.	.	.	.	.	.	.	.
55_id	166.50	11	9	2	43	space	2.36371853825	cr	False	55_id	False	Cats	1831.31	3	257	1	29.85
55_id	1012.00	0	1	.	.	.	.	.	.	.	.	.	.	.	.	.	.
55_id	182.40	9	6	2	230	space	2.21793766023	cr	False	55_id	False	Cats	1838.97	3	258	NA	NA
55_id	1014.00	0	1	.	.	.	.	.	.	.	.	.	.	.	.	.	.
55_id	233.47	14	7	2	280	space	4.02076378744	cr	False	55_id	False	Cats	1844.66	3	259	NA	NA
55_id	435.00	1	1	.	.	.	.	.	.	.	.	.	.	.	.	.	.
55_id	447.50	3	3	2	241	return	1.80883540469	fa	True	55_id	True	Cats	1852.18	3	260	NA	NA
55_id	1012.00	0	1	.	.	.	.	.	.	.	.	.	.	.	.	.	.
55_id	271.00	3	3	2	139	return	1.17199751479	fa	True	55_id	True	Cats	1857.43	3	261	0	23.06
55_id	490.00	1	1	.	.	.	.	.	.	.	.	.	.	.	.	.	.
55_id	309.64	10	8	2	297	space	3.90328340267	cr	False	55_id	False	Cats	1864.95	3	262	NA	NA
55_id	270.00	2	1	.	.	.	.	.	.	.	.	.	.	.	.	.	.
55_id	216.91	11	9	2	284	space	3.1581395946	cr	False	55_id	False	Cats	1872.29	3	263	NA	NA
55_id	936.00	1	1	.	.	.	.	.	.	.	.	.	.	.	.	.	.
55_id	177.45	11	6	2	180	space	2.77291903016	cr	False	55_id	False	Cats	1878.9	3	264	1	20.18
55_id	1012.00	0	1	.	.	.	.	.	.	.	.	.	.	.	.	.	.
55_id	209.82	11	10	2	53	space	2.76903686248	cr	False	55_id	False	Cats	1888.36	3	265	NA	NA
55_id	399.00	1	1	.	.	.	.	.	.	.	.	.	.	.	.	.	.
55_id	174.00	11	6	2	87	space	2.45773656899	cr	False	55_id	False	Cats	1894.58	3	266	NA	NA
55_id	502.00	1	1	.	.	.	.	.	.	.	.	.	.	.	.	.	.
55_id	195.00	9	8	2	98	space	2.21847832663	cr	False	55_id	False	Cats	1900.5	3	267	NA	NA
55_id	1014.00	0	1	.	.	.	.	.	.	.	.	.	.	.	.	.	.
55_id	193.67	11	10	2	291	space	2.66297718388	cr	False	55_id	False	Cats	1906.19	3	268	NA	NA
55_id	1012.00	0	1	.	.	.	.	.	.	.	.	.	.	.	.	.	.
55_id	352.40	19	6	2	147	return	8.41097607685	fa	False	55_id	False	Cats	1912.31	3	269	0	36.02
55_id	1014.00	0	1	.	.	.	.	.	.	.	.	.	.	.	.	.	.
55_id	304.00	4	3	2	231	return	1.86831310263	hi	False	55_id	True	Cats	1926.56	3	270	NA	NA
55_id	1014.00	0	1	.	.	.	.	.	.	.	.	.	.	.	.	.	.
55_id	170.20	10	7	2	295	space	2.53001578012	cr	False	55_id	False	Cats	1931.89	3	271	NA	NA
55_id	408.00	1	1	.	.	.	.	.	.	.	.	.	.	.	.	.	.
55_id	215.50	8	6	2	276	space	2.113714048	cr	False	55_id	False	Cats	1937.85	3	272	NA	NA
55_id	212.67	2	1	.	.	.	.	.	.	.	.	.	.	.	.	.	.
55_id	211.60	9	8	2	134	space	2.41732918151	cr	False	55_id	False	Cats	1943.98	3	273	NA	NA
55_id	1010.00	0	1	.	.	.	.	.	.	.	.	.	.	.	.	.	.
55_id	199.56	8	6	2	40	space	2.02217648452	cr	False	55_id	False	Cats	1950.17	3	274	1	29.13
55_id	1014.00	0	1	.	.	.	.	.	.	.	.	.	.	.	.	.	.
55_id	181.60	10	9	2	171	space	2.17530382704	cr	False	55_id	False	Cats	1958.64	3	275	NA	NA
55_id	1014.00	0	1	.	.	.	.	.	.	.	.	.	.	.	.	.	.
55_id	259.30	19	6	2	242	space	5.92141643591	cr	False	55_id	False	Cats	1964.28	3	276	NA	NA
55_id	1014.00	0	1	.	.	.	.	.	.	.	.	.	.	.	.	.	.
55_id	272.00	3	2	2	67	return	1.76015160652	hi	False	55_id	True	Cats	1974.02	3	277	0	20.61
55_id	1012.00	0	1	.	.	.	.	.	.	.	.	.	.	.	.	.	.
55_id	156.83	11	8	2	111	space	2.26502878359	cr	False	55_id	False	Cats	1981.0	3	278	NA	NA
55_id	778.00	0	1	.	.	.	.	.	.	.	.	.	.	.	.	.	.
55_id	217.64	10	9	2	205	space	2.70664726378	cr	False	55_id	False	Cats	1986.73	3	279	NA	NA
55_id	1006.00	0	1	.	.	.	.	.	.	.	.	.	.	.	.	.	.
55_id	206.91	10	9	2	34	space	2.61895557918	cr	False	55_id	False	Cats	1993.14	3	280	NA	NA
55_id	1010.00	0	1	.	.	.	.	.	.	.	.	.	.	.	.	.	.
55_id	399.33	3	2	2	125	return	1.29757799802	hi	False	55_id	True	Cats	1999.41	3	281	NA	NA
55_id	1010.00	0	1	.	.	.	.	.	.	.	.	.	.	.	.	.	.
55_id	253.50	4	2	2	168	return	1.45122474676	hi	False	55_id	True	Cats	2004.3	3	282	0	28.2
55_id	502.00	1	1	.	.	.	.	.	.	.	.	.	.	.	.	.	.
55_id	203.45	10	9	2	156	space	2.52127934492	cr	False	55_id	False	Cats	2011.3	3	283	NA	NA
55_id	393.00	1	1	.	.	.	.	.	.	.	.	.	.	.	.	.	.
55_id	209.64	10	9	2	59	return	3.00277737563	fa	True	55_id	True	Cats	2017.41	3	284	NA	NA
55_id	390.00	1	1	.	.	.	.	.	.	.	.	.	.	.	.	.	.
55_id	241.80	9	9	2	211	space	2.78381959704	cr	False	55_id	False	Cats	2023.95	3	285	0	18.89
55_id	420.00	1	1	.	.	.	.	.	.	.	.	.	.	.	.	.	.
55_id	221.45	10	8	2	287	space	2.8356682178	cr	False	55_id	False	Cats	2032.4	3	286	NA	NA
55_id	346.00	1	1	.	.	.	.	.	.	.	.	.	.	.	.	.	.
55_id	171.07	14	9	2	42	space	3.02077075199	cr	False	55_id	False	Cats	2038.71	3	287	NA	NA
55_id	1010.00	0	1	.	.	.	.	.	.	.	.	.	.	.	.	.	.
55_id	204.44	8	7	2	237	space	2.0740459988	cr	False	55_id	False	Cats	2045.18	3	288	NA	NA
55_id	407.00	1	1	.	.	.	.	.	.	.	.	.	.	.	.	.	.
55_id	190.75	16	10	2	78	space	3.80310177541	cr	False	55_id	False	Cats	2050.72	3	289	NA	NA
55_id	1012.00	0	1	.	.	.	.	.	.	.	.	.	.	.	.	.	.
55_id	170.50	12	8	2	165	space	2.45758005069	cr	False	55_id	False	Cats	2058.1	3	290	1	31.63
55_id	1014.00	0	1	.	.	.	.	.	.	.	.	.	.	.	.	.	.
55_id	171.60	9	8	2	129	space	1.96969372628	cr	False	55_id	False	Cats	2066.43	3	291	NA	NA
55_id	329.00	1	1	.	.	.	.	.	.	.	.	.	.	.	.	.	.
55_id	169.20	9	6	2	12	space	1.98974896583	cr	False	55_id	False	Cats	2071.87	3	292	NA	NA
55_id	214.00	2	1	.	.	.	.	.	.	.	.	.	.	.	.	.	.
55_id	216.89	8	7	2	75	space	2.21851388225	cr	False	55_id	False	Cats	2077.3	3	293	NA	NA
55_id	1008.00	0	1	.	.	.	.	.	.	.	.	.	.	.	.	.	.
55_id	213.60	9	5	2	82	space	2.4728627642	cr	False	55_id	False	Cats	2084.08	3	294	1	23.57
55_id	208.67	2	1	.	.	.	.	.	.	.	.	.	.	.	.	.	.
55_id	460.67	2	3	2	49	return	1.36325264879	hi	False	55_id	True	Cats	2091.75	3	295	NA	NA
55_id	382.00	1	1	.	.	.	.	.	.	.	.	.	.	.	.	.	.
55_id	226.89	8	5	2	146	return	2.28820412629	fa	True	55_id	True	Cats	2096.73	3	296	NA	NA
55_id	1004.00	0	1	.	.	.	.	.	.	.	.	.	.	.	.	.	.
55_id	214.17	11	9	2	272	space	2.88969086716	cr	False	55_id	False	Cats	2102.68	3	297	NA	NA
55_id	1014.00	0	1	.	.	.	.	.	.	.	.	.	.	.	.	.	.
55_id	172.83	11	9	2	174	space	2.45206268795	cr	False	55_id	False	Cats	2109.2	3	298	0	23.36
55_id	355.00	1	1	.	.	.	.	.	.	.	.	.	.	.	.	.	.
55_id	201.27	10	10	2	255	space	2.51870320714	cr	False	55_id	False	Cats	2116.79	3	299	NA	NA
55_id	1014.00	0	1	.	.	.	.	.	.	.	.	.	.	.	.	.	.
55_id	204.15	12	8	2	89	space	3.03588191845	cr	False	55_id	False	Cats	2122.79	3	300	0	12.57
56_mt	321.33	2	1	.	.	.	.	.	.	.	.	.	.	.	.	.	.
56_mt	1000.00	0	1	.	.	.	.	.	.	.	.	.	.	.	.	.	.
56_mt	324.00	2	1	.	.	.	.	.	.	.	.	.	.	.	.	.	.
56_mt	256.40	4	4	4	19	space	1.39478980901	cr	False	56_mt	False	Utility_Vehicles	1.39	5	1	NA	NA
56_mt	1000.00	0	1	.	.	.	.	.	.	.	.	.	.	.	.	.	.
56_mt	189.78	8	4	4	44	space	2.00619768596	cr	False	56_mt	False	Utility_Vehicles	6.23	5	2	NA	NA
56_mt	1012.00	0	1	.	.	.	.	.	.	.	.	.	.	.	.	.	.
56_mt	178.29	6	5	4	162	space	1.43454619765	cr	False	56_mt	False	Utility_Vehicles	11.68	5	3	NA	NA
56_mt	503.00	1	1	.	.	.	.	.	.	.	.	.	.	.	.	.	.
56_mt	164.44	8	6	4	252	space	1.70574590878	cr	False	56_mt	False	Utility_Vehicles	16.53	5	4	1	18.27
56_mt	494.00	1	1	.	.	.	.	.	.	.	.	.	.	.	.	.	.
56_mt	186.86	6	5	4	248	space	1.4721615474	cr	False	56_mt	False	Utility_Vehicles	26.26	5	5	NA	NA
56_mt	493.00	1	1	.	.	.	.	.	.	.	.	.	.	.	.	.	.
56_mt	175.45	11	6	4	134	space	2.26241709024	cr	False	56_mt	False	Utility_Vehicles	31.26	5	6	NA	NA
56_mt	324.67	2	1	.	.	.	.	.	.	.	.	.	.	.	.	.	.
56_mt	168.20	10	6	4	232	space	1.96122560825	cr	False	56_mt	False	Utility_Vehicles	37.04	5	7	NA	NA
56_mt	242.50	3	1	.	.	.	.	.	.	.	.	.	.	.	.	.	.
56_mt	226.50	7	5	4	59	space	2.06288847793	cr	False	56_mt	False	Utility_Vehicles	42.46	5	8	0	22.01
56_mt	265.33	2	1	.	.	.	.	.	.	.	.	.	.	.	.	.	.
56_mt	182.00	7	5	4	65	return	1.63334023673	fa	True	56_mt	True	Utility_Vehicles	50.43	5	9	NA	NA
56_mt	500.00	1	1	.	.	.	.	.	.	.	.	.	.	.	.	.	.
56_mt	170.00	7	6	4	142	space	1.60589124728	cr	False	56_mt	False	Utility_Vehicles	55.5	5	10	NA	NA
56_mt	245.50	3	1	.	.	.	.	.	.	.	.	.	.	.	.	.	.
56_mt	157.33	5	3	4	35	space	1.1051487932	cr	False	56_mt	False	Utility_Vehicles	60.55	5	11	NA	NA
56_mt	496.00	1	1	.	.	.	.	.	.	.	.	.	.	.	.	.	.
56_mt	187.71	6	4	4	28	space	1.48465332284	cr	False	56_mt	False	Utility_Vehicles	65.11	5	12	0	19.66
56_mt	205.00	3	1	.	.	.	.	.	.	.	.	.	.	.	.	.	.
56_mt	206.20	10	8	4	103	space	2.42278606293	cr	False	56_mt	False	Utility_Vehicles	73.56	5	13	NA	NA
56_mt	328.67	2	1	.	.	.	.	.	.	.	.	.	.	.	.	.	.
56_mt	122.80	9	4	4	82	space	1.48855381832	cr	False	56_mt	False	Utility_Vehicles	79.44	5	14	NA	NA
56_mt	353.00	1	1	.	.	.	.	.	.	.	.	.	.	.	.	.	.
56_mt	255.14	6	5	4	20	return	1.97263421817	hi	False	56_mt	True	Utility_Vehicles	84.4	5	15	0	18.04
56_mt	326.67	2	1	.	.	.	.	.	.	.	.	.	.	.	.	.	.
56_mt	173.33	8	5	4	115	space	1.83933155308	cr	False	56_mt	False	Utility_Vehicles	91.16	5	16	NA	NA
56_mt	499.00	1	1	.	.	.	.	.	.	.	.	.	.	.	.	.	.
56_mt	177.17	11	7	4	159	space	2.47761293047	cr	False	56_mt	False	Utility_Vehicles	96.67	5	17	NA	NA
56_mt	500.00	1	1	.	.	.	.	.	.	.	.	.	.	.	.	.	.
56_mt	196.20	9	5	4	114	space	2.27249657735	cr	False	56_mt	False	Utility_Vehicles	102.59	5	18	NA	NA
56_mt	502.00	1	1	.	.	.	.	.	.	.	.	.	.	.	.	.	.
56_mt	167.80	9	7	4	17	space	1.95164866582	cr	False	56_mt	False	Utility_Vehicles	108.31	5	19	NA	NA
56_mt	494.00	1	1	.	.	.	.	.	.	.	.	.	.	.	.	.	.
56_mt	199.80	9	7	4	195	space	2.34599787765	cr	False	56_mt	False	Utility_Vehicles	113.73	5	20	0	28.38
56_mt	227.50	3	1	.	.	.	.	.	.	.	.	.	.	.	.	.	.
56_mt	189.25	7	5	4	128	space	1.74038887653	cr	False	56_mt	False	Utility_Vehicles	120.77	5	21	NA	NA
56_mt	1014.00	0	1	.	.	.	.	.	.	.	.	.	.	.	.	.	.
56_mt	263.33	6	4	4	96	space	1.77237616444	cr	False	56_mt	False	Utility_Vehicles	125.94	5	22	NA	NA
56_mt	1014.00	0	1	.	.	.	.	.	.	.	.	.	.	.	.	.	.
56_mt	193.27	10	7	4	89	space	2.41885001177	cr	False	56_mt	False	Utility_Vehicles	131.18	5	23	NA	NA
56_mt	497.00	1	1	.	.	.	.	.	.	.	.	.	.	.	.	.	.
56_mt	207.25	8	4	4	182	space	1.90271964343	cr	False	56_mt	False	Utility_Vehicles	137.06	5	24	NA	NA
56_mt	1014.00	0	1	.	.	.	.	.	.	.	.	.	.	.	.	.	.
56_mt	187.33	11	7	4	261	space	2.60139950109	cr	False	56_mt	False	Utility_Vehicles	142.42	5	25	0	27.72
56_mt	1012.00	0	1	.	.	.	.	.	.	.	.	.	.	.	.	.	.
56_mt	229.33	11	6	4	40	space	3.00108499825	cr	False	56_mt	False	Utility_Vehicles	149.78	5	26	NA	NA
56_mt	964.00	1	1	.	.	.	.	.	.	.	.	.	.	.	.	.	.
56_mt	218.00	7	4	4	228	return	1.75153686712	fa	False	56_mt	False	Utility_Vehicles	156.43	5	27	NA	NA
56_mt	446.00	2	1	.	.	.	.	.	.	.	.	.	.	.	.	.	.
56_mt	171.25	8	5	4	7	space	1.63586395734	cr	False	56_mt	False	Utility_Vehicles	161.65	5	28	0	17.06
56_mt	499.00	1	1	.	.	.	.	.	.	.	.	.	.	.	.	.	.
56_mt	180.80	4	3	4	146	return	0.958792059799	fa	False	56_mt	False	Utility_Vehicles	167.87	5	29	NA	NA
56_mt	328.00	2	1	.	.	.	.	.	.	.	.	.	.	.	.	.	.
56_mt	143.83	12	6	4	29	space	2.12222212041	cr	False	56_mt	False	Utility_Vehicles	172.36	5	30	NA	NA
56_mt	1008.00	0	1	.	.	.	.	.	.	.	.	.	.	.	.	.	.
56_mt	142.22	8	5	4	147	space	1.68478601519	mi	False	56_mt	True	Utility_Vehicles	178.06	5	31	NA	NA
56_mt	500.00	1	1	.	.	.	.	.	.	.	.	.	.	.	.	.	.
56_mt	157.11	10	3	4	52	space	1.85602183186	cr	False	56_mt	False	Utility_Vehicles	183.27	5	32	1	20.71
56_mt	209.00	3	1	.	.	.	.	.	.	.	.	.	.	.	.	.	.
56_mt	142.00	9	5	4	24	return	1.86825958581	hi	False	56_mt	True	Utility_Vehicles	193.29	5	33	NA	NA
56_mt	926.00	1	1	.	.	.	.	.	.	.	.	.	.	.	.	.	.
56_mt	195.50	15	8	4	180	space	3.61941193836	cr	False	56_mt	False	Utility_Vehicles	198.6	5	34	NA	NA
56_mt	241.00	3	1	.	.	.	.	.	.	.	.	.	.	.	.	.	.
56_mt	197.00	11	6	4	181	space	2.72314473544	cr	False	56_mt	False	Utility_Vehicles	205.88	5	35	0	21.86
56_mt	252.00	2	1	.	.	.	.	.	.	.	.	.	.	.	.	.	.
56_mt	189.20	9	8	4	265	space	2.22333515994	cr	False	56_mt	False	Utility_Vehicles	213.29	5	36	NA	NA
56_mt	924.00	1	1	.	.	.	.	.	.	.	.	.	.	.	.	.	.
56_mt	158.67	11	8	4	118	space	2.26854109881	cr	False	56_mt	False	Utility_Vehicles	218.93	5	37	NA	NA
56_mt	268.00	2	1	.	.	.	.	.	.	.	.	.	.	.	.	.	.
56_mt	272.67	5	5	4	266	space	1.77261369117	cr	False	56_mt	False	Utility_Vehicles	224.63	5	38	0	16.62
56_mt	385.00	2	1	.	.	.	.	.	.	.	.	.	.	.	.	.	.
56_mt	173.40	9	5	4	84	space	2.11072223866	cr	False	56_mt	False	Utility_Vehicles	232.64	5	39	NA	NA
56_mt	766.00	0	1	.	.	.	.	.	.	.	.	.	.	.	.	.	.
56_mt	200.60	9	7	4	274	space	2.28502134257	cr	False	56_mt	False	Utility_Vehicles	238.17	5	40	NA	NA
56_mt	1014.00	0	1	.	.	.	.	.	.	.	.	.	.	.	.	.	.
56_mt	179.78	9	7	4	299	space	1.93246948894	cr	False	56_mt	False	Utility_Vehicles	243.9	5	41	NA	NA
56_mt	1010.00	0	1	.	.	.	.	.	.	.	.	.	.	.	.	.	.
56_mt	229.17	11	7	4	108	space	3.21415079641	cr	False	56_mt	False	Utility_Vehicles	249.27	5	42	NA	NA
56_mt	258.67	2	1	.	.	.	.	.	.	.	.	.	.	.	.	.	.
56_mt	202.91	10	6	4	14	space	2.5187526918	cr	False	56_mt	False	Utility_Vehicles	255.93	5	43	0	30.88
56_mt	1012.00	0	1	.	.	.	.	.	.	.	.	.	.	.	.	.	.
56_mt	167.64	10	8	4	278	space	2.15755787422	cr	False	56_mt	False	Utility_Vehicles	263.49	5	44	NA	NA
56_mt	316.67	3	1	.	.	.	.	.	.	.	.	.	.	.	.	.	.
56_mt	171.64	10	8	4	79	space	2.20180820813	cr	False	56_mt	False	Utility_Vehicles	269.1	5	45	NA	NA
56_mt	189.00	3	1	.	.	.	.	.	.	.	.	.	.	.	.	.	.
56_mt	259.00	7	4	4	255	return	2.28524200781	fa	False	56_mt	False	Utility_Vehicles	274.74	5	46	NA	NA
56_mt	1000.00	0	1	.	.	.	.	.	.	.	.	.	.	.	.	.	.
56_mt	246.80	10	8	4	172	return	2.84650097229	fa	True	56_mt	True	Utility_Vehicles	280.58	5	47	NA	NA
56_mt	326.00	2	1	.	.	.	.	.	.	.	.	.	.	.	.	.	.
56_mt	194.40	15	10	4	100	space	3.38803496188	cr	False	56_mt	False	Utility_Vehicles	286.86	5	48	0	30.55
56_mt	988.00	1	1	.	.	.	.	.	.	.	.	.	.	.	.	.	.
56_mt	216.40	10	6	4	284	space	2.58133363142	cr	False	56_mt	False	Utility_Vehicles	294.77	5	49	NA	NA
56_mt	243.50	3	1	.	.	.	.	.	.	.	.	.	.	.	.	.	.
56_mt	192.50	15	9	4	10	space	3.53185367922	cr	False	56_mt	False	Utility_Vehicles	300.79	5	50	NA	NA
56_mt	330.00	2	1	.	.	.	.	.	.	.	.	.	.	.	.	.	.
56_mt	172.36	10	7	4	222	space	2.18514322164	mi	False	56_mt	True	Utility_Vehicles	307.76	5	51	0	18.64
56_mt	329.33	2	1	.	.	.	.	.	.	.	.	.	.	.	.	.	.
56_mt	228.00	15	9	4	212	space	3.83570120763	cr	False	56_mt	False	Utility_Vehicles	314.55	5	52	NA	NA
56_mt	327.33	2	1	.	.	.	.	.	.	.	.	.	.	.	.	.	.
56_mt	254.00	8	5	4	171	space	2.53204392048	cr	False	56_mt	False	Utility_Vehicles	321.84	5	53	NA	NA
56_mt	251.33	2	1	.	.	.	.	.	.	.	.	.	.	.	.	.	.
56_mt	246.29	6	4	4	215	space	1.9066062097	cr	False	56_mt	False	Utility_Vehicles	327.81	5	54	NA	NA
56_mt	245.00	3	1	.	.	.	.	.	.	.	.	.	.	.	.	.	.
56_mt	208.50	11	8	4	199	space	2.84211882565	cr	False	56_mt	False	Utility_Vehicles	333.17	5	55	0	24.95
56_mt	182.50	3	1	.	.	.	.	.	.	.	.	.	.	.	.	.	.
56_mt	281.00	7	5	4	36	space	2.51876368851	cr	False	56_mt	False	Utility_Vehicles	340.4	5	56	NA	NA
56_mt	928.00	1	1	.	.	.	.	.	.	.	.	.	.	.	.	.	.
56_mt	243.80	9	6	4	238	space	2.75598645955	cr	False	56_mt	False	Utility_Vehicles	346.36	5	57	NA	NA
56_mt	239.00	3	1	.	.	.	.	.	.	.	.	.	.	.	.	.	.
56_mt	278.00	5	4	4	122	return	1.7722258775	fa	False	56_mt	False	Utility_Vehicles	352.58	5	58	0	17.42
56_mt	326.67	2	1	.	.	.	.	.	.	.	.	.	.	.	.	.	.
56_mt	294.57	6	6	4	106	space	2.27693920524	cr	False	56_mt	False	Utility_Vehicles	358.84	5	59	NA	NA
56_mt	1012.00	0	1	.	.	.	.	.	.	.	.	.	.	.	.	.	.
56_mt	252.25	7	4	4	141	return	2.23953828926	hi	False	56_mt	True	Utility_Vehicles	364.58	5	60	NA	NA
56_mt	239.50	3	1	.	.	.	.	.	.	.	.	.	.	.	.	.	.
56_mt	206.67	11	9	4	124	space	2.80662142183	cr	False	56_mt	False	Utility_Vehicles	370.27	5	61	NA	NA
56_mt	501.00	1	1	.	.	.	.	.	.	.	.	.	.	.	.	.	.
56_mt	160.33	5	4	4	211	return	1.13820678391	fa	True	56_mt	True	Utility_Vehicles	378.59	5	62	0	24.33
56_mt	402.00	1	1	.	.	.	.	.	.	.	.	.	.	.	.	.	.
56_mt	156.36	10	6	4	267	space	2.03957457806	cr	False	56_mt	False	Utility_Vehicles	390.33	5	63	NA	NA
56_mt	389.00	1	1	.	.	.	.	.	.	.	.	.	.	.	.	.	.
56_mt	183.83	11	7	4	38	space	2.93985407508	cr	False	56_mt	False	Utility_Vehicles	396.04	5	64	NA	NA
56_mt	403.00	1	1	.	.	.	.	.	.	.	.	.	.	.	.	.	.
56_mt	188.73	10	6	4	81	space	2.59165467741	mi	False	56_mt	True	Utility_Vehicles	402.44	5	65	0	24.41
56_mt	321.33	3	1	.	.	.	.	.	.	.	.	.	.	.	.	.	.
56_mt	237.80	9	5	4	46	space	2.63830923557	cr	False	56_mt	False	Utility_Vehicles	410.19	5	66	NA	NA
56_mt	504.00	1	1	.	.	.	.	.	.	.	.	.	.	.	.	.	.
56_mt	230.86	6	5	4	276	space	1.94075029832	cr	False	56_mt	False	Utility_Vehicles	416.27	5	67	NA	NA
56_mt	500.00	1	1	.	.	.	.	.	.	.	.	.	.	.	.	.	.
56_mt	196.31	12	7	4	138	space	3.00246763788	cr	False	56_mt	False	Utility_Vehicles	421.87	5	68	NA	NA
56_mt	498.00	1	1	.	.	.	.	.	.	.	.	.	.	.	.	.	.
56_mt	186.40	10	7	4	167	space	2.25188600924	cr	False	56_mt	False	Utility_Vehicles	428.43	5	69	NA	NA
56_mt	384.00	1	1	.	.	.	.	.	.	.	.	.	.	.	.	.	.
56_mt	208.67	9	7	4	51	space	2.16395569837	cr	False	56_mt	False	Utility_Vehicles	439.07	5	70	0	35.01
56_mt	173.50	4	1	.	.	.	.	.	.	.	.	.	.	.	.	.	.
56_mt	181.33	11	7	4	76	space	2.57307078328	cr	False	56_mt	False	Utility_Vehicles	445.69	5	71	NA	NA
56_mt	237.50	4	1	.	.	.	.	.	.	.	.	.	.	.	.	.	.
56_mt	302.80	4	4	4	27	return	1.5886848612	hi	False	56_mt	True	Utility_Vehicles	451.69	5	72	NA	NA
56_mt	332.00	2	1	.	.	.	.	.	.	.	.	.	.	.	.	.	.
56_mt	197.45	10	6	4	273	return	2.55660006998	fa	True	56_mt	True	Utility_Vehicles	457.12	5	73	NA	NA
56_mt	188.80	4	1	.	.	.	.	.	.	.	.	.	.	.	.	.	.
56_mt	221.00	3	2	4	264	return	0.95569028426	fa	True	56_mt	True	Utility_Vehicles	463.35	5	74	0	22.1
56_mt	401.00	1	1	.	.	.	.	.	.	.	.	.	.	.	.	.	.
56_mt	195.33	12	7	4	47	space	2.7519584035	cr	False	56_mt	False	Utility_Vehicles	469.29	5	75	NA	NA
56_mt	500.00	1	1	.	.	.	.	.	.	.	.	.	.	.	.	.	.
56_mt	199.29	13	6	4	11	space	3.2403883267	cr	False	56_mt	False	Utility_Vehicles	475.5	5	76	NA	NA
56_mt	242.00	3	1	.	.	.	.	.	.	.	.	.	.	.	.	.	.
56_mt	206.73	10	7	4	161	space	2.62598864047	cr	False	56_mt	False	Utility_Vehicles	482.22	5	77	NA	NA
56_mt	493.00	1	1	.	.	.	.	.	.	.	.	.	.	.	.	.	.
56_mt	229.47	14	9	4	202	space	3.95187116368	cr	False	56_mt	False	Utility_Vehicles	489.47	5	78	0	27.61
56_mt	495.00	1	1	.	.	.	.	.	.	.	.	.	.	.	.	.	.
56_mt	133.14	6	4	4	34	return	1.25069654325	hi	False	56_mt	True	Utility_Vehicles	501.17	5	79	NA	NA
56_mt	500.00	1	1	.	.	.	.	.	.	.	.	.	.	.	.	.	.
56_mt	197.14	7	4	4	54	space	1.55972823733	cr	False	56_mt	False	Utility_Vehicles	506.0	5	80	NA	NA
56_mt	232.00	4	1	.	.	.	.	.	.	.	.	.	.	.	.	.	.
56_mt	269.33	3	3	4	249	return	0.895365114789	hi	False	56_mt	True	Utility_Vehicles	511.01	5	81	NA	NA
56_mt	171.50	3	1	.	.	.	.	.	.	.	.	.	.	.	.	.	.
56_mt	220.29	6	2	4	200	return	1.64781469991	fa	True	56_mt	True	Utility_Vehicles	516.41	5	82	NA	NA
56_mt	496.00	1	1	.	.	.	.	.	.	.	.	.	.	.	.	.	.
56_mt	203.20	4	5	4	237	space	1.12509479991	cr	False	56_mt	False	Utility_Vehicles	521.51	5	83	NA	NA
56_mt	329.33	2	1	.	.	.	.	.	.	.	.	.	.	.	.	.	.
56_mt	218.00	3	4	4	268	return	0.939828049741	hi	False	56_mt	True	Utility_Vehicles	526.08	5	84	0	32.6
56_mt	1004.00	0	1	.	.	.	.	.	.	.	.	.	.	.	.	.	.
56_mt	186.86	6	5	4	15	return	1.43896206724	hi	False	56_mt	True	Utility_Vehicles	533.78	5	85	NA	NA
56_mt	425.00	1	1	.	.	.	.	.	.	.	.	.	.	.	.	.	.
56_mt	165.00	8	5	4	64	space	1.556205292	mi	False	56_mt	True	Utility_Vehicles	538.68	5	86	NA	NA
56_mt	1016.00	0	1	.	.	.	.	.	.	.	.	.	.	.	.	.	.
56_mt	195.00	9	5	4	144	space	2.20885079994	cr	False	56_mt	False	Utility_Vehicles	543.67	5	87	0	17.96
56_mt	497.00	1	1	.	.	.	.	.	.	.	.	.	.	.	.	.	.
56_mt	172.86	13	7	4	91	space	2.96920804295	mi	False	56_mt	True	Utility_Vehicles	551.77	5	88	NA	NA
56_mt	503.00	1	1	.	.	.	.	.	.	.	.	.	.	.	.	.	.
56_mt	226.29	7	6	4	112	space	1.940264615	cr	False	56_mt	False	Utility_Vehicles	558.3	5	89	NA	NA
56_mt	1002.00	0	1	.	.	.	.	.	.	.	.	.	.	.	.	.	.
56_mt	197.27	10	6	4	86	space	2.47522446816	cr	False	56_mt	False	Utility_Vehicles	564.18	5	90	1	19.88
56_mt	187.50	3	1	.	.	.	.	.	.	.	.	.	.	.	.	.	.
56_mt	175.83	11	7	4	191	space	2.49458912108	cr	False	56_mt	False	Utility_Vehicles	571.77	5	91	NA	NA
56_mt	844.00	1	1	.	.	.	.	.	.	.	.	.	.	.	.	.	.
56_mt	250.57	7	6	4	21	space	2.03503224754	cr	False	56_mt	False	Utility_Vehicles	577.71	5	92	NA	NA
56_mt	474.00	2	1	.	.	.	.	.	.	.	.	.	.	.	.	.	.
56_mt	208.86	7	5	4	203	return	1.7344957965	fa	False	56_mt	False	Utility_Vehicles	584.3	5	93	NA	NA
56_mt	495.00	1	1	.	.	.	.	.	.	.	.	.	.	.	.	.	.
56_mt	202.22	8	5	4	18	space	2.08956257347	cr	True	56_mt	True	Utility_Vehicles	590.27	5	94	2	24.04
56_mt	213.00	3	1	.	.	.	.	.	.	.	.	.	.	.	.	.	.
56_mt	192.55	10	7	4	197	space	2.50979705772	cr	False	56_mt	False	Utility_Vehicles	598.26	5	95	NA	NA
56_mt	328.67	2	1	.	.	.	.	.	.	.	.	.	.	.	.	.	.
56_mt	202.67	5	4	4	229	return	1.30568029569	fa	True	56_mt	True	Utility_Vehicles	604.21	5	96	NA	NA
56_mt	242.50	3	1	.	.	.	.	.	.	.	.	.	.	.	.	.	.
56_mt	177.45	10	6	4	196	space	2.18968481908	cr	False	56_mt	False	Utility_Vehicles	608.98	5	97	0	16.59
56_mt	324.67	2	1	.	.	.	.	.	.	.	.	.	.	.	.	.	.
56_mt	162.17	12	7	4	37	space	2.50680561492	cr	False	56_mt	False	Utility_Vehicles	617.06	5	98	NA	NA
56_mt	1014.00	0	1	.	.	.	.	.	.	.	.	.	.	.	.	.	.
56_mt	272.55	10	10	4	257	space	3.28262958117	cr	False	56_mt	False	Utility_Vehicles	623.01	5	99	NA	NA
56_mt	1000.00	0	1	.	.	.	.	.	.	.	.	.	.	.	.	.	.
56_mt	201.07	14	9	4	186	space	3.5738244172	cr	False	56_mt	False	Utility_Vehicles	629.75	5	100	NA	NA
56_mt	1000.00	0	1	.	.	.	.	.	.	.	.	.	.	.	.	.	.
56_mt	196.50	15	9	4	270	space	3.60291923175	cr	False	56_mt	False	Utility_Vehicles	637.64	5	101	0	27.65
56_mt	1002.00	0	0	.	.	.	.	.	.	.	.	.	.	.	.	.	.
56_mt	167.00	9	7	4	145	space	1.97236736713	cr	True	56_mt	True	Utility_Vehicles	654.5	5	102	NA	NA
56_mt	1012.00	0	1	.	.	.	.	.	.	.	.	.	.	.	.	.	.
56_mt	197.17	12	7	4	214	space	2.77259499696	cr	False	56_mt	False	Utility_Vehicles	659.92	5	103	NA	NA
56_mt	324.67	3	1	.	.	.	.	.	.	.	.	.	.	.	.	.	.
56_mt	185.45	11	6	4	113	space	2.41866123676	cr	False	56_mt	False	Utility_Vehicles	666.17	5	104	1	25.2
56_mt	177.00	3	1	.	.	.	.	.	.	.	.	.	.	.	.	.	.
56_mt	254.00	13	8	4	13	space	3.85739164229	cr	False	56_mt	False	Utility_Vehicles	673.72	5	105	NA	NA
56_mt	306.67	3	1	.	.	.	.	.	.	.	.	.	.	.	.	.	.
56_mt	177.50	3	3	4	209	return	0.7810172959	hi	False	56_mt	True	Utility_Vehicles	681.01	5	106	NA	NA
56_mt	162.00	4	1	.	.	.	.	.	.	.	.	.	.	.	.	.	.
56_mt	181.50	3	3	4	291	return	0.759960632073	hi	False	56_mt	True	Utility_Vehicles	685.64	5	107	NA	NA
56_mt	496.00	1	1	.	.	.	.	.	.	.	.	.	.	.	.	.	.
56_mt	171.85	13	8	4	177	space	2.67353465664	cr	False	56_mt	False	Utility_Vehicles	690.63	5	108	NA	NA
56_mt	501.00	1	1	.	.	.	.	.	.	.	.	.	.	.	.	.	.
