RECORDING_SESSION_LABEL	AVERAGE_FIXATION_DURATION	SACCADE_COUNT	VISITED_INTEREST_AREA_COUNT	hunger	recorder_trial	resp	rt	rtype	sim	sub	tar	tcateg	time	tired	tnum	tutra	tuttime	fixed
53_mg	488	1	1	.	.	.	.	.	.	.	.	.	.	.	.	.	.	
53_mg	1014	0	1	.	.	.	.	.	.	.	.	.	.	.	.	.	.	
53_mg	144	4	1	.	.	.	.	.	.	.	.	.	.	.	.	.	.	
53_mg	203.29	13	7	1	126	space	3.273915872	cr	FALSE	53_mg	FALSE	Utility_Vehicles	1.89	1	1	NA	NA	3273.915872
53_mg	104.4	4	1	.	.	.	.	.	.	.	.	.	.	.	.	.	.	
53_mg	104.71	13	7	1	90	space	2.302003764	cr	FALSE	53_mg	FALSE	Utility_Vehicles	8.79	1	2	NA	NA	2302.003764
53_mg	1016	0	1	.	.	.	.	.	.	.	.	.	.	.	.	.	.	
53_mg	186.44	8	5	1	64	return	1.968364237	hi	FALSE	53_mg	TRUE	Utility_Vehicles	14.53	1	3	NA	NA	1968.364237
53_mg	283.33	2	1	.	.	.	.	.	.	.	.	.	.	.	.	.	.	
53_mg	199.5	7	5	1	269	space	1.98502006	cr	FALSE	53_mg	FALSE	Utility_Vehicles	19.94	1	4	NA	NA	1985.02006
53_mg	210.67	3	1	.	.	.	.	.	.	.	.	.	.	.	.	.	.	
53_mg	129.5	12	7	1	180	space	2.785601413	cr	FALSE	53_mg	FALSE	Utility_Vehicles	25.37	1	5	0	28.21	2785.601413
53_mg	.	1	0	.	.	.	.	.	.	.	.	.	.	.	.	.	.	
53_mg	81.14	13	7	1	123	space	3.202628188	cr	FALSE	53_mg	FALSE	Utility_Vehicles	36.53	1	6	NA	NA	3202.628188
53_mg	78.75	7	1	.	.	.	.	.	.	.	.	.	.	.	.	.	.	
53_mg	77.25	16	7	1	60	space	3.240438178	cr	FALSE	53_mg	FALSE	Utility_Vehicles	43.17	1	7	NA	NA	3240.438178
53_mg	112.4	4	1	.	.	.	.	.	.	.	.	.	.	.	.	.	.	
53_mg	104.86	6	4	1	18	return	1.008051713	fa	TRUE	53_mg	TRUE	Utility_Vehicles	49.94	1	8	NA	NA	1008.051713
53_mg	78.67	5	1	.	.	.	.	.	.	.	.	.	.	.	.	.	.	
53_mg	101.71	6	4	1	88	space	1.172062395	cr	FALSE	53_mg	FALSE	Utility_Vehicles	54.61	1	9	NA	NA	1172.062395
53_mg	138.5	4	1	.	.	.	.	.	.	.	.	.	.	.	.	.	.	
53_mg	88.55	11	5	1	97	space	1.879639605	cr	FALSE	53_mg	FALSE	Utility_Vehicles	60.37	1	10	0	30.42	1879.639605
53_mg	145.5	4	1	.	.	.	.	.	.	.	.	.	.	.	.	.	.	
53_mg	90.53	15	6	1	272	space	2.43038215	cr	FALSE	53_mg	FALSE	Utility_Vehicles	77.18	1	11	NA	NA	2430.38215
53_mg	176.4	4	1	.	.	.	.	.	.	.	.	.	.	.	.	.	.	
53_mg	127.27	10	5	1	205	space	1.896534787	cr	FALSE	53_mg	FALSE	Utility_Vehicles	83.07	1	12	NA	NA	1896.534787
53_mg	149.33	2	1	.	.	.	.	.	.	.	.	.	.	.	.	.	.	
53_mg	84.33	12	7	1	173	space	2.420404932	cr	FALSE	53_mg	FALSE	Utility_Vehicles	88.42	1	13	NA	NA	2420.404932
53_mg	234.67	3	1	.	.	.	.	.	.	.	.	.	.	.	.	.	.	
53_mg	200.62	12	9	1	233	space	2.958164887	cr	FALSE	53_mg	FALSE	Utility_Vehicles	94.29	1	14	0	23.81	2958.164887
53_mg	93.2	5	1	.	.	.	.	.	.	.	.	.	.	.	.	.	.	
53_mg	42.25	7	3	1	109	return	1.976565504	hi	FALSE	53_mg	TRUE	Utility_Vehicles	104.82	1	15	NA	NA	1976.565504
53_mg	74	1	1	.	.	.	.	.	.	.	.	.	.	.	.	.	.	
53_mg	217.14	7	7	1	110	return	2.30633606	hi	FALSE	53_mg	TRUE	Utility_Vehicles	111.76	1	16	NA	NA	2306.33606
53_mg	1014	0	1	.	.	.	.	.	.	.	.	.	.	.	.	.	.	
53_mg	192.67	8	7	1	240	space	1.956180733	cr	FALSE	53_mg	FALSE	Utility_Vehicles	117.51	1	17	NA	NA	1956.180733
53_mg	420	1	1	.	.	.	.	.	.	.	.	.	.	.	.	.	.	
53_mg	190.5	4	3	1	281	return	0.78849462	hi	FALSE	53_mg	TRUE	Utility_Vehicles	122.9	1	18	0	22.89	788.4946199
53_mg	408	1	1	.	.	.	.	.	.	.	.	.	.	.	.	.	.	
53_mg	163.6	10	6	1	9	space	1.983655015	cr	FALSE	53_mg	FALSE	Utility_Vehicles	131.82	1	19	NA	NA	1983.655015
53_mg	220	4	1	.	.	.	.	.	.	.	.	.	.	.	.	.	.	
53_mg	203.8	9	6	1	157	return	2.298492182	hi	FALSE	53_mg	TRUE	Utility_Vehicles	137.44	1	20	NA	NA	2298.492182
53_mg	1014	0	1	.	.	.	.	.	.	.	.	.	.	.	.	.	.	
53_mg	188.25	7	7	1	61	space	1.72240613	cr	FALSE	53_mg	FALSE	Utility_Vehicles	143.18	1	21	NA	NA	1722.40613
53_mg	172.5	4	1	.	.	.	.	.	.	.	.	.	.	.	.	.	.	
53_mg	159.2	9	6	1	27	return	1.850370677	hi	FALSE	53_mg	TRUE	Utility_Vehicles	148.5	1	22	NA	NA	1850.370677
53_mg	238	3	1	.	.	.	.	.	.	.	.	.	.	.	.	.	.	
53_mg	165.25	7	6	1	100	space	1.522329887	cr	FALSE	53_mg	FALSE	Utility_Vehicles	153.82	1	23	0	26.98	1522.329887
53_mg	271.33	2	1	.	.	.	.	.	.	.	.	.	.	.	.	.	.	
53_mg	152.67	5	5	1	163	return	1.038796385	hi	FALSE	53_mg	TRUE	Utility_Vehicles	162	1	24	NA	NA	1038.796385
53_mg	326.67	2	1	.	.	.	.	.	.	.	.	.	.	.	.	.	.	
53_mg	181.33	5	5	1	282	space	1.217734223	cr	FALSE	53_mg	FALSE	Utility_Vehicles	166.48	1	25	NA	NA	1217.734223
53_mg	1016	0	1	.	.	.	.	.	.	.	.	.	.	.	.	.	.	
53_mg	173.75	7	6	1	170	space	1.641941414	cr	FALSE	53_mg	FALSE	Utility_Vehicles	171.16	1	26	NA	NA	1641.941414
53_mg	492	1	1	.	.	.	.	.	.	.	.	.	.	.	.	.	.	
53_mg	179.71	6	7	1	176	space	1.461321828	cr	FALSE	53_mg	FALSE	Utility_Vehicles	176.24	1	27	NA	NA	1461.321828
53_mg	419	1	1	.	.	.	.	.	.	.	.	.	.	.	.	.	.	
53_mg	142.55	10	8	1	207	space	1.956619497	cr	FALSE	53_mg	FALSE	Utility_Vehicles	181.26	1	28	0	24.68	1956.619497
53_mg	1016	0	1	.	.	.	.	.	.	.	.	.	.	.	.	.	.	
53_mg	160.8	9	8	1	244	space	1.889270064	cr	FALSE	53_mg	FALSE	Utility_Vehicles	189.41	1	29	NA	NA	1889.270064
53_mg	268	2	1	.	.	.	.	.	.	.	.	.	.	.	.	.	.	
53_mg	164.4	9	8	1	237	space	1.939489354	cr	FALSE	53_mg	FALSE	Utility_Vehicles	194.75	1	30	NA	NA	1939.489354
53_mg	998	0	1	.	.	.	.	.	.	.	.	.	.	.	.	.	.	
53_mg	188.75	8	5	1	85	space	1.739436937	cr	FALSE	53_mg	FALSE	Utility_Vehicles	200.12	1	31	NA	NA	1739.436937
53_mg	425	1	1	.	.	.	.	.	.	.	.	.	.	.	.	.	.	
53_mg	181.33	8	7	1	236	space	1.939863972	cr	FALSE	53_mg	FALSE	Utility_Vehicles	205.35	1	32	NA	NA	1939.863972
53_mg	329.33	2	1	.	.	.	.	.	.	.	.	.	.	.	.	.	.	
53_mg	166.91	10	8	1	234	space	2.162420206	cr	FALSE	53_mg	FALSE	Utility_Vehicles	210.75	1	33	NA	NA	2162.420206
53_mg	1006	0	1	.	.	.	.	.	.	.	.	.	.	.	.	.	.	
53_mg	268.44	9	6	1	101	space	2.739913457	cr	FALSE	53_mg	FALSE	Utility_Vehicles	216.49	1	34	0	33.27	2739.913457
53_mg	202	4	1	.	.	.	.	.	.	.	.	.	.	.	.	.	.	
53_mg	141.86	13	9	1	189	space	2.532888093	cr	FALSE	53_mg	FALSE	Utility_Vehicles	226.5	1	35	NA	NA	2532.888093
53_mg	272.67	2	1	.	.	.	.	.	.	.	.	.	.	.	.	.	.	
53_mg	196.17	12	8	1	32	space	2.784771536	cr	FALSE	53_mg	FALSE	Utility_Vehicles	232.77	1	36	NA	NA	2784.771536
53_mg	328.67	2	1	.	.	.	.	.	.	.	.	.	.	.	.	.	.	
53_mg	181.38	12	9	1	288	space	2.86906747	cr	FALSE	53_mg	FALSE	Utility_Vehicles	239.01	1	37	NA	NA	2869.06747
53_mg	321.33	2	1	.	.	.	.	.	.	.	.	.	.	.	.	.	.	
53_mg	156.89	8	7	1	154	space	1.795688965	cr	FALSE	53_mg	FALSE	Utility_Vehicles	245.58	1	38	NA	NA	1795.688965
53_mg	232.5	3	1	.	.	.	.	.	.	.	.	.	.	.	.	.	.	
53_mg	170.86	6	6	1	297	space	1.35643842	cr	FALSE	53_mg	FALSE	Utility_Vehicles	250.81	1	39	0	29.4	1356.43842
53_mg	195.5	4	1	.	.	.	.	.	.	.	.	.	.	.	.	.	.	
53_mg	184.6	9	8	1	219	space	2.139583559	cr	FALSE	53_mg	FALSE	Utility_Vehicles	259.82	1	40	NA	NA	2139.583559
53_mg	220.5	4	1	.	.	.	.	.	.	.	.	.	.	.	.	.	.	
53_mg	189.27	10	5	1	44	space	2.293572302	cr	FALSE	53_mg	FALSE	Utility_Vehicles	265.39	1	41	NA	NA	2293.572302
53_mg	192	3	1	.	.	.	.	.	.	.	.	.	.	.	.	.	.	
53_mg	154.83	11	9	1	4	space	2.189883491	cr	FALSE	53_mg	FALSE	Utility_Vehicles	271.56	1	42	NA	NA	2189.883491
53_mg	232.5	3	1	.	.	.	.	.	.	.	.	.	.	.	.	.	.	
53_mg	192.35	16	10	1	259	space	3.809237514	cr	FALSE	53_mg	FALSE	Utility_Vehicles	277.29	1	43	NA	NA	3809.237514
53_mg	324.67	2	1	.	.	.	.	.	.	.	.	.	.	.	.	.	.	
53_mg	248.75	7	6	1	235	return	2.190990116	hi	FALSE	53_mg	TRUE	Utility_Vehicles	284.58	1	44	0	31.09	2190.990116
53_mg	152.4	4	1	.	.	.	.	.	.	.	.	.	.	.	.	.	.	
53_mg	377.71	6	4	1	222	space	2.811122698	mi	FALSE	53_mg	TRUE	Utility_Vehicles	293.37	1	45	NA	NA	2811.122698
53_mg	171.6	4	1	.	.	.	.	.	.	.	.	.	.	.	.	.	.	
53_mg	278	3	3	1	42	return	0.87205708	hi	FALSE	53_mg	TRUE	Utility_Vehicles	299.63	1	46	NA	NA	872.0570797
53_mg	229.5	4	1	.	.	.	.	.	.	.	.	.	.	.	.	.	.	
53_mg	153.27	10	8	1	124	space	2.158343765	cr	FALSE	53_mg	FALSE	Utility_Vehicles	303.99	1	47	NA	NA	2158.343765
53_mg	231.5	3	1	.	.	.	.	.	.	.	.	.	.	.	.	.	.	
53_mg	170	9	6	1	280	space	1.972706429	cr	FALSE	53_mg	FALSE	Utility_Vehicles	309.66	1	48	NA	NA	1972.706429
53_mg	483	1	1	.	.	.	.	.	.	.	.	.	.	.	.	.	.	
53_mg	228.29	7	6	1	45	space	1.872718709	cr	FALSE	53_mg	FALSE	Utility_Vehicles	315.11	1	49	0	27.33	1872.718709
53_mg	418	1	1	.	.	.	.	.	.	.	.	.	.	.	.	.	.	
53_mg	206	6	5	1	38	space	1.606121076	cr	FALSE	53_mg	FALSE	Utility_Vehicles	323.44	1	50	NA	NA	1606.121076
53_mg	326	2	1	.	.	.	.	.	.	.	.	.	.	.	.	.	.	
53_mg	189.64	10	7	1	48	space	2.385411905	cr	FALSE	53_mg	FALSE	Utility_Vehicles	328.49	1	51	NA	NA	2385.411905
53_mg	312.67	2	1	.	.	.	.	.	.	.	.	.	.	.	.	.	.	
53_mg	184.12	16	11	1	117	space	3.660975069	cr	FALSE	53_mg	FALSE	Utility_Vehicles	334.33	1	52	NA	NA	3660.975069
53_mg	278	2	1	.	.	.	.	.	.	.	.	.	.	.	.	.	.	
53_mg	189.82	10	8	1	254	space	2.424624329	cr	FALSE	53_mg	FALSE	Utility_Vehicles	341.45	1	53	0	23.89	2424.624329
53_mg	1014	0	1	.	.	.	.	.	.	.	.	.	.	.	.	.	.	
53_mg	192.18	10	8	1	292	space	2.439728164	cr	FALSE	53_mg	FALSE	Utility_Vehicles	349.68	1	54	NA	NA	2439.728164
53_mg	184	4	1	.	.	.	.	.	.	.	.	.	.	.	.	.	.	
53_mg	167.14	6	5	1	135	space	1.44632466	cr	FALSE	53_mg	FALSE	Utility_Vehicles	355.98	1	55	NA	NA	1446.32466
53_mg	204	3	1	.	.	.	.	.	.	.	.	.	.	.	.	.	.	
53_mg	225.83	11	9	1	213	space	3.087825843	cr	FALSE	53_mg	FALSE	Utility_Vehicles	360.9	1	56	NA	NA	3087.825843
53_mg	229.5	3	1	.	.	.	.	.	.	.	.	.	.	.	.	.	.	
53_mg	175	7	5	1	49	space	1.575865753	cr	FALSE	53_mg	FALSE	Utility_Vehicles	367.62	1	57	0	22.98	1575.865753
53_mg	164.4	4	1	.	.	.	.	.	.	.	.	.	.	.	.	.	.	
53_mg	163.38	15	9	1	289	return	3.107076864	hi	FALSE	53_mg	TRUE	Utility_Vehicles	376.75	1	58	NA	NA	3107.076864
53_mg	1014	0	1	.	.	.	.	.	.	.	.	.	.	.	.	.	.	
53_mg	155.27	10	7	1	155	space	1.993230491	cr	FALSE	53_mg	FALSE	Utility_Vehicles	383.32	1	59	NA	NA	1993.230491
53_mg	1000	0	1	.	.	.	.	.	.	.	.	.	.	.	.	.	.	
53_mg	192.22	8	6	1	58	space	1.956616931	cr	FALSE	53_mg	FALSE	Utility_Vehicles	388.76	1	60	0	17.57	1956.616931
53_mg	205.5	4	1	.	.	.	.	.	.	.	.	.	.	.	.	.	.	
53_mg	206.4	9	8	1	294	space	2.350540941	cr	FALSE	53_mg	FALSE	Utility_Vehicles	397.88	1	61	NA	NA	2350.540941
53_mg	178	3	1	.	.	.	.	.	.	.	.	.	.	.	.	.	.	
53_mg	193.6	9	8	1	216	space	2.156478741	cr	FALSE	53_mg	FALSE	Utility_Vehicles	403.67	1	62	NA	NA	2156.478741
53_mg	503	1	1	.	.	.	.	.	.	.	.	.	.	.	.	.	.	
53_mg	194.33	12	9	1	74	space	2.741096691	cr	FALSE	53_mg	FALSE	Utility_Vehicles	409.32	1	63	NA	NA	2741.096691
53_mg	1008	0	1	.	.	.	.	.	.	.	.	.	.	.	.	.	.	
53_mg	176.6	9	6	1	5	space	2.050246416	cr	FALSE	53_mg	FALSE	Utility_Vehicles	415.74	1	64	NA	NA	2050.246416
53_mg	402	1	1	.	.	.	.	.	.	.	.	.	.	.	.	.	.	
53_mg	238.33	11	8	1	106	space	3.173541804	cr	FALSE	53_mg	FALSE	Utility_Vehicles	421.23	1	65	0	30.52	3173.541804
53_mg	200.5	3	1	.	.	.	.	.	.	.	.	.	.	.	.	.	.	
53_mg	216.67	5	4	1	81	return	1.422123701	hi	FALSE	53_mg	TRUE	Utility_Vehicles	430.24	1	66	NA	NA	1422.123701
53_mg	186.4	4	1	.	.	.	.	.	.	.	.	.	.	.	.	.	.	
53_mg	140.8	4	3	1	102	return	0.774015392	hi	FALSE	53_mg	TRUE	Utility_Vehicles	435.11	1	67	NA	NA	774.0153916
53_mg	324.67	2	1	.	.	.	.	.	.	.	.	.	.	.	.	.	.	
53_mg	158	6	7	1	167	space	1.281824263	cr	FALSE	53_mg	FALSE	Utility_Vehicles	439.45	1	68	NA	NA	1281.824263
53_mg	479	1	1	.	.	.	.	.	.	.	.	.	.	.	.	.	.	
53_mg	183.43	7	6	1	112	space	1.555759196	cr	FALSE	53_mg	FALSE	Utility_Vehicles	444.17	1	69	0	18.96	1555.759196
53_mg	187.6	4	1	.	.	.	.	.	.	.	.	.	.	.	.	.	.	
53_mg	174.22	8	7	1	296	space	1.828325419	cr	FALSE	53_mg	FALSE	Utility_Vehicles	451.71	1	70	NA	NA	1828.325419
53_mg	414	1	1	.	.	.	.	.	.	.	.	.	.	.	.	.	.	
53_mg	152.55	10	7	1	218	space	1.985984828	cr	FALSE	53_mg	FALSE	Utility_Vehicles	457.23	1	71	NA	NA	1985.984828
53_mg	207.5	3	1	.	.	.	.	.	.	.	.	.	.	.	.	.	.	
53_mg	208	4	4	1	69	space	1.149028175	cr	FALSE	53_mg	FALSE	Utility_Vehicles	462.66	1	72	NA	NA	1149.028175
53_mg	812	0	1	.	.	.	.	.	.	.	.	.	.	.	.	.	.	
53_mg	171	3	3	1	34	return	0.739007337	hi	FALSE	53_mg	TRUE	Utility_Vehicles	467.26	1	73	NA	NA	739.0073366
53_mg	422	1	1	.	.	.	.	.	.	.	.	.	.	.	.	.	.	
53_mg	176	7	6	1	263	space	1.622425741	cr	FALSE	53_mg	FALSE	Utility_Vehicles	471.44	1	74	0	25.14	1622.425741
53_mg	1014	0	1	.	.	.	.	.	.	.	.	.	.	.	.	.	.	
53_mg	183.5	8	5	1	57	space	1.773929618	cr	FALSE	53_mg	FALSE	Utility_Vehicles	479.33	1	75	NA	NA	1773.929618
53_mg	1032	0	1	.	.	.	.	.	.	.	.	.	.	.	.	.	.	
53_mg	183.43	7	6	1	68	space	1.475406645	cr	FALSE	53_mg	FALSE	Utility_Vehicles	484.82	1	76	NA	NA	1475.406645
53_mg	498	1	1	.	.	.	.	.	.	.	.	.	.	.	.	.	.	
53_mg	209.6	9	8	1	144	space	2.406480665	cr	FALSE	53_mg	FALSE	Utility_Vehicles	489.75	1	77	NA	NA	2406.480665
53_mg	415	1	1	.	.	.	.	.	.	.	.	.	.	.	.	.	.	
53_mg	164.17	11	8	1	300	return	2.278108511	fa	TRUE	53_mg	TRUE	Utility_Vehicles	495.64	1	78	NA	NA	2278.108511
53_mg	190	3	1	.	.	.	.	.	.	.	.	.	.	.	.	.	.	
53_mg	230	8	7	1	162	space	2.359344822	cr	FALSE	53_mg	FALSE	Utility_Vehicles	501.44	1	79	NA	NA	2359.344822
53_mg	1014	0	1	.	.	.	.	.	.	.	.	.	.	.	.	.	.	
53_mg	184	11	8	1	143	space	2.585555961	cr	FALSE	53_mg	FALSE	Utility_Vehicles	507.25	1	80	0	33.94	2585.555961
53_mg	408	1	1	.	.	.	.	.	.	.	.	.	.	.	.	.	.	
53_mg	190.77	12	9	1	153	space	2.832597233	cr	FALSE	53_mg	FALSE	Utility_Vehicles	515.74	1	81	NA	NA	2832.597233
53_mg	154	4	1	.	.	.	.	.	.	.	.	.	.	.	.	.	.	
53_mg	200	11	8	1	230	space	2.808356319	cr	FALSE	53_mg	FALSE	Utility_Vehicles	522.26	1	82	NA	NA	2808.356319
53_mg	1028	0	1	.	.	.	.	.	.	.	.	.	.	.	.	.	.	
53_mg	175.78	8	8	1	8	space	1.840240606	cr	FALSE	53_mg	FALSE	Utility_Vehicles	528.81	1	83	NA	NA	1840.240606
53_mg	1014	0	1	.	.	.	.	.	.	.	.	.	.	.	.	.	.	
53_mg	281.5	3	4	1	77	return	1.188588824	fa	FALSE	53_mg	FALSE	Utility_Vehicles	534.09	1	84	0	23	1188.588824
53_mg	428	1	1	.	.	.	.	.	.	.	.	.	.	.	.	.	.	
53_mg	205.85	12	10	1	183	space	3.035810074	cr	FALSE	53_mg	FALSE	Utility_Vehicles	541.98	1	85	NA	NA	3035.810074
53_mg	136.8	4	1	.	.	.	.	.	.	.	.	.	.	.	.	.	.	
53_mg	162.18	10	7	1	171	space	2.089753181	cr	FALSE	53_mg	FALSE	Utility_Vehicles	548.46	1	86	NA	NA	2089.753181
53_mg	1018	0	1	.	.	.	.	.	.	.	.	.	.	.	.	.	.	
53_mg	196.57	13	10	1	224	space	3.198987946	cr	FALSE	53_mg	FALSE	Utility_Vehicles	554.02	1	87	NA	NA	3198.987946
53_mg	1014	0	1	.	.	.	.	.	.	.	.	.	.	.	.	.	.	
53_mg	172.18	11	8	1	290	space	2.285824461	cr	FALSE	53_mg	FALSE	Utility_Vehicles	560.69	1	88	NA	NA	2285.824461
53_mg	1014	0	1	.	.	.	.	.	.	.	.	.	.	.	.	.	.	
53_mg	214.36	11	9	1	175	space	2.740320698	cr	FALSE	53_mg	FALSE	Utility_Vehicles	566.46	1	89	0	30.85	2740.320698
53_mg	499	1	1	.	.	.	.	.	.	.	.	.	.	.	.	.	.	
53_mg	199.07	14	8	1	150	space	3.609047273	cr	FALSE	53_mg	FALSE	Utility_Vehicles	575.37	1	90	NA	NA	3609.047273
53_mg	328	2	1	.	.	.	.	.	.	.	.	.	.	.	.	.	.	
53_mg	182.4	15	10	1	274	space	3.302713412	cr	FALSE	53_mg	FALSE	Utility_Vehicles	582.43	1	91	NA	NA	3302.713412
53_mg	181	3	1	.	.	.	.	.	.	.	.	.	.	.	.	.	.	
53_mg	182.91	10	7	1	86	space	2.323101482	cr	FALSE	53_mg	FALSE	Utility_Vehicles	589.18	1	92	NA	NA	2323.101482
53_mg	207	3	1	.	.	.	.	.	.	.	.	.	.	.	.	.	.	
53_mg	170.8	10	6	1	140	space	2.106093402	cr	FALSE	53_mg	FALSE	Utility_Vehicles	595.52	1	93	0	25.73	2106.093402
53_mg	219	4	1	.	.	.	.	.	.	.	.	.	.	.	.	.	.	
53_mg	155.85	13	8	1	127	space	2.469550221	cr	FALSE	53_mg	FALSE	Utility_Vehicles	603.57	1	94	NA	NA	2469.550221
53_mg	188	4	1	.	.	.	.	.	.	.	.	.	.	.	.	.	.	
53_mg	228	10	9	1	115	space	2.60000953	cr	FALSE	53_mg	FALSE	Utility_Vehicles	610.53	1	95	NA	NA	2600.00953
53_mg	270	2	1	.	.	.	.	.	.	.	.	.	.	.	.	.	.	
53_mg	212.4	10	6	1	225	space	2.456353563	cr	FALSE	53_mg	FALSE	Utility_Vehicles	616.59	1	96	0	18.99	2456.353563
53_mg	205.5	4	1	.	.	.	.	.	.	.	.	.	.	.	.	.	.	
53_mg	175.17	11	9	1	1	space	2.506264215	cr	FALSE	53_mg	FALSE	Utility_Vehicles	624.81	1	97	NA	NA	2506.264215
53_mg	324.67	2	1	.	.	.	.	.	.	.	.	.	.	.	.	.	.	
53_mg	140.6	9	7	1	202	space	1.724695257	cr	FALSE	53_mg	FALSE	Utility_Vehicles	630.78	1	98	NA	NA	1724.695257
53_mg	425	1	1	.	.	.	.	.	.	.	.	.	.	.	.	.	.	
53_mg	169.14	13	9	1	93	space	2.88583949	cr	FALSE	53_mg	FALSE	Utility_Vehicles	635.93	1	99	NA	NA	2885.83949
53_mg	1012	0	1	.	.	.	.	.	.	.	.	.	.	.	.	.	.	
53_mg	174	7	5	1	151	space	1.680909346	cr	FALSE	53_mg	FALSE	Utility_Vehicles	642.26	1	100	0	22.58	1680.909346
53_mg	1016	0	1	.	.	.	.	.	.	.	.	.	.	.	.	.	.	
53_mg	178.62	12	10	1	23	space	2.740363218	cr	FALSE	53_mg	FALSE	Utility_Vehicles	649.81	1	101	NA	NA	2740.363218
53_mg	208.5	3	1	.	.	.	.	.	.	.	.	.	.	.	.	.	.	
53_mg	473	1	1	1	273	return	0.888768252	fa	TRUE	53_mg	TRUE	Utility_Vehicles	656	1	102	NA	NA	888.768252
53_mg	496	1	1	.	.	.	.	.	.	.	.	.	.	.	.	.	.	
53_mg	191.4	10	9	1	14	space	2.273131081	cr	FALSE	53_mg	FALSE	Utility_Vehicles	660.35	1	103	NA	NA	2273.131081
53_mg	748	2	1	.	.	.	.	.	.	.	.	.	.	.	.	.	.	
53_mg	162.36	11	8	1	158	space	2.185186841	cr	FALSE	53_mg	FALSE	Utility_Vehicles	666.09	1	104	NA	NA	2185.186841
53_mg	1012	0	1	.	.	.	.	.	.	.	.	.	.	.	.	.	.	
53_mg	171	3	2	1	249	return	0.68406757	hi	FALSE	53_mg	TRUE	Utility_Vehicles	671.71	1	105	0	26.05	684.0675705
53_mg	1000	0	1	.	.	.	.	.	.	.	.	.	.	.	.	.	.	
53_mg	207.5	4	4	1	99	return	0.889610225	fa	TRUE	53_mg	TRUE	Utility_Vehicles	677.95	1	106	NA	NA	889.6102254
53_mg	419	1	1	.	.	.	.	.	.	.	.	.	.	.	.	.	.	
53_mg	161.33	5	4	1	247	space	1.117800019	cr	FALSE	53_mg	FALSE	Utility_Vehicles	682.32	1	107	NA	NA	1117.800019
53_mg	1006	0	1	.	.	.	.	.	.	.	.	.	.	.	.	.	.	
53_mg	161.2	9	6	1	210	space	1.935061022	cr	FALSE	53_mg	FALSE	Utility_Vehicles	687.22	1	108	NA	NA	1935.061022
53_mg	187	4	1	.	.	.	.	.	.	.	.	.	.	.	.	.	.	
53_mg	149.56	8	7	1	260	space	1.590881983	cr	FALSE	53_mg	FALSE	Utility_Vehicles	692.6	1	109	NA	NA	1590.881983
53_mg	1014	0	1	.	.	.	.	.	.	.	.	.	.	.	.	.	.	
53_mg	159.5	11	10	1	177	space	2.256441169	cr	FALSE	53_mg	FALSE	Utility_Vehicles	697.65	1	110	0	25.4	2256.441169
53_mg	177.2	4	1	.	.	.	.	.	.	.	.	.	.	.	.	.	.	
53_mg	245.14	6	3	1	164	return	1.889495128	hi	FALSE	53_mg	TRUE	Utility_Vehicles	706.01	1	111	NA	NA	1889.495128
53_mg	1014	0	1	.	.	.	.	.	.	.	.	.	.	.	.	.	.	
53_mg	174.22	8	8	1	13	space	1.819056015	cr	FALSE	53_mg	FALSE	Utility_Vehicles	711.34	1	112	NA	NA	1819.056015
53_mg	324	2	1	.	.	.	.	.	.	.	.	.	.	.	.	.	.	
53_mg	324.5	3	2	1	200	return	1.334588535	fa	TRUE	53_mg	TRUE	Utility_Vehicles	716.59	1	113	NA	NA	1334.588535
53_mg	836	0	1	.	.	.	.	.	.	.	.	.	.	.	.	.	.	
53_mg	167.64	10	8	1	298	space	2.23521809	cr	FALSE	53_mg	FALSE	Utility_Vehicles	721.38	1	114	0	21.41	2235.21809
53_mg	245	3	1	.	.	.	.	.	.	.	.	.	.	.	.	.	.	
53_mg	186	11	8	1	293	return	2.96631337	hi	FALSE	53_mg	TRUE	Utility_Vehicles	729.07	1	115	NA	NA	2966.31337
53_mg	268	2	1	.	.	.	.	.	.	.	.	.	.	.	.	.	.	
53_mg	191.27	10	8	1	96	space	2.418689828	cr	FALSE	53_mg	FALSE	Utility_Vehicles	735.48	1	116	NA	NA	2418.689828
53_mg	329.33	2	1	.	.	.	.	.	.	.	.	.	.	.	.	.	.	
53_mg	180.8	9	8	1	131	space	2.053198271	cr	FALSE	53_mg	FALSE	Utility_Vehicles	741.33	1	117	NA	NA	2053.198271
53_mg	1008	0	1	.	.	.	.	.	.	.	.	.	.	.	.	.	.	
53_mg	200	12	10	1	36	space	2.802432082	cr	FALSE	53_mg	FALSE	Utility_Vehicles	746.92	1	118	0	24.12	2802.432082
53_mg	1012	0	1	.	.	.	.	.	.	.	.	.	.	.	.	.	.	
53_mg	171	9	8	1	133	space	1.959993622	cr	FALSE	53_mg	FALSE	Utility_Vehicles	755.15	1	119	NA	NA	1959.993622
53_mg	1014	0	1	.	.	.	.	.	.	.	.	.	.	.	.	.	.	
53_mg	156	9	8	1	130	space	1.718295966	cr	FALSE	53_mg	FALSE	Utility_Vehicles	760.56	1	120	NA	NA	1718.295966
53_mg	501	1	1	.	.	.	.	.	.	.	.	.	.	.	.	.	.	
53_mg	186	3	3	1	56	return	0.767422194	fa	TRUE	53_mg	TRUE	Utility_Vehicles	765.72	1	121	NA	NA	767.4221945
53_mg	1016	0	1	.	.	.	.	.	.	.	.	.	.	.	.	.	.	
53_mg	178	10	9	1	284	space	2.259189587	cr	FALSE	53_mg	FALSE	Utility_Vehicles	769.92	1	122	NA	NA	2259.189587
53_mg	1012	0	1	.	.	.	.	.	.	.	.	.	.	.	.	.	.	
53_mg	154.5	7	6	1	128	space	1.474664741	cr	FALSE	53_mg	FALSE	Utility_Vehicles	775.64	1	123	0	25.43	1474.664741
53_mg	1012	0	1	.	.	.	.	.	.	.	.	.	.	.	.	.	.	
53_mg	185.33	8	6	1	253	space	1.92264329	cr	FALSE	53_mg	FALSE	Utility_Vehicles	782.68	1	124	NA	NA	1922.64329
53_mg	326.67	2	1	.	.	.	.	.	.	.	.	.	.	.	.	.	.	
53_mg	163.8	9	6	1	92	space	1.96838623	cr	FALSE	53_mg	FALSE	Utility_Vehicles	788.07	1	125	NA	NA	1968.38623
53_mg	329.33	2	1	.	.	.	.	.	.	.	.	.	.	.	.	.	.	
53_mg	152	11	9	1	251	space	2.172491262	cr	FALSE	53_mg	FALSE	Utility_Vehicles	793.46	1	126	NA	NA	2172.491262
53_mg	1000	0	1	.	.	.	.	.	.	.	.	.	.	.	.	.	.	
53_mg	205.5	3	2	1	187	return	0.834119896	hi	FALSE	53_mg	TRUE	Utility_Vehicles	799.34	1	127	0	20.92	834.119896
53_mg	436	1	1	.	.	.	.	.	.	.	.	.	.	.	.	.	.	
53_mg	141.4	9	6	1	179	return	2.156405797	hi	FALSE	53_mg	TRUE	Utility_Vehicles	806.43	1	128	NA	NA	2156.405797
53_mg	372	2	0	.	.	.	.	.	.	.	.	.	.	.	.	.	.	
53_mg	182	4	3	1	262	return	0.951316202	fa	TRUE	53_mg	TRUE	Utility_Vehicles	812.06	1	129	NA	NA	951.3162018
53_mg	1010	0	1	.	.	.	.	.	.	.	.	.	.	.	.	.	.	
53_mg	175	11	10	1	152	space	2.438986626	cr	FALSE	53_mg	FALSE	Utility_Vehicles	816.49	1	130	NA	NA	2438.986626
53_mg	1014	0	1	.	.	.	.	.	.	.	.	.	.	.	.	.	.	
53_mg	181.43	7	5	1	12	space	1.473465378	cr	FALSE	53_mg	FALSE	Utility_Vehicles	822.36	1	131	0	20.88	1473.465378
53_mg	240	3	1	.	.	.	.	.	.	.	.	.	.	.	.	.	.	
53_mg	164.86	7	4	1	182	space	1.367807076	cr	FALSE	53_mg	FALSE	Utility_Vehicles	829.45	1	132	NA	NA	1367.807076
53_mg	1014	0	1	.	.	.	.	.	.	.	.	.	.	.	.	.	.	
53_mg	189.67	5	6	1	17	space	1.278130504	cr	FALSE	53_mg	FALSE	Utility_Vehicles	834.26	1	133	NA	NA	1278.130504
53_mg	183.6	4	1	.	.	.	.	.	.	.	.	.	.	.	.	.	.	
53_mg	191.78	9	8	1	181	space	2.039488438	cr	FALSE	53_mg	FALSE	Utility_Vehicles	838.99	1	134	NA	NA	2039.488438
53_mg	201.5	3	1	.	.	.	.	.	.	.	.	.	.	.	.	.	.	
53_mg	162.18	10	8	1	84	space	2.096585738	cr	FALSE	53_mg	FALSE	Utility_Vehicles	844.48	1	135	0	20.68	2096.585738
53_mg	429	1	1	.	.	.	.	.	.	.	.	.	.	.	.	.	.	
53_mg	176.67	8	7	1	103	space	1.822660335	cr	FALSE	53_mg	FALSE	Utility_Vehicles	851.87	1	136	NA	NA	1822.660335
53_mg	211	3	1	.	.	.	.	.	.	.	.	.	.	.	.	.	.	
53_mg	178.55	10	7	1	51	space	2.272979695	cr	FALSE	53_mg	FALSE	Utility_Vehicles	857.14	1	137	NA	NA	2272.979695
53_mg	178.5	3	1	.	.	.	.	.	.	.	.	.	.	.	.	.	.	
53_mg	157.64	10	7	1	89	space	2.053901687	cr	FALSE	53_mg	FALSE	Utility_Vehicles	862.86	1	138	0	16.51	2053.901687
53_mg	1014	0	1	.	.	.	.	.	.	.	.	.	.	.	.	.	.	
53_mg	181.09	10	7	1	134	space	2.272721641	cr	FALSE	53_mg	FALSE	Utility_Vehicles	870.47	1	139	NA	NA	2272.721641
53_mg	1010	0	1	.	.	.	.	.	.	.	.	.	.	.	.	.	.	
53_mg	199.69	12	8	1	188	space	3.006915764	cr	FALSE	53_mg	FALSE	Utility_Vehicles	877.94	1	140	NA	NA	3006.915764
53_mg	1012	0	1	.	.	.	.	.	.	.	.	.	.	.	.	.	.	
53_mg	254.55	11	10	1	206	space	3.129863294	cr	FALSE	53_mg	FALSE	Utility_Vehicles	884.41	1	141	1	20.54	3129.863294
53_mg	.	1	0	.	.	.	.	.	.	.	.	.	.	.	.	.	.	
53_mg	.	1	0	1	22	return	1.193459953	fa	TRUE	53_mg	TRUE	Utility_Vehicles	893.5	1	142	NA	NA	1193.459953
53_mg	41	5	1	.	.	.	.	.	.	.	.	.	.	.	.	.	.	
53_mg	111.5	9	4	1	46	space	2.391604093	cr	FALSE	53_mg	FALSE	Utility_Vehicles	900.77	1	143	NA	NA	2391.604093
53_mg	49.43	8	1	.	.	.	.	.	.	.	.	.	.	.	.	.	.	
53_mg	120	9	6	1	43	space	2.802397993	cr	FALSE	53_mg	FALSE	Utility_Vehicles	906.76	1	144	NA	NA	2802.397993
53_mg	50.8	4	1	.	.	.	.	.	.	.	.	.	.	.	.	.	.	
53_mg	117.67	7	4	1	192	space	2.239146077	cr	FALSE	53_mg	FALSE	Utility_Vehicles	913.2	1	145	NA	NA	2239.146077
53_mg	53.5	4	1	.	.	.	.	.	.	.	.	.	.	.	.	.	.	
53_mg	81.5	16	5	1	256	space	3.04046347	cr	FALSE	53_mg	FALSE	Utility_Vehicles	924.38	1	146	2	37.38	3040.46347
53_mg	91.33	3	1	.	.	.	.	.	.	.	.	.	.	.	.	.	.	
53_mg	54	12	4	1	119	space	2.440260033	cr	FALSE	53_mg	FALSE	Utility_Vehicles	934.69	1	147	NA	NA	2440.260033
53_mg	250.67	2	1	.	.	.	.	.	.	.	.	.	.	.	.	.	.	
53_mg	164.83	12	6	1	165	space	2.801348184	cr	FALSE	53_mg	FALSE	Utility_Vehicles	947.5	1	148	NA	NA	2801.348184
53_mg	1014	0	1	.	.	.	.	.	.	.	.	.	.	.	.	.	.	
53_mg	179.47	15	9	1	16	space	3.171736529	cr	FALSE	53_mg	FALSE	Utility_Vehicles	953.73	1	149	NA	NA	3171.736529
53_mg	1000	0	1	.	.	.	.	.	.	.	.	.	.	.	.	.	.	
53_mg	199.5	7	7	1	95	space	1.830799288	cr	FALSE	53_mg	FALSE	Utility_Vehicles	960.34	1	150	0	31.17	1830.799288
53_mg	1012	0	1	.	.	.	.	.	.	.	.	.	.	.	.	.	.	
53_mg	202.86	6	5	1	264	return	1.534707664	fa	TRUE	53_mg	TRUE	Utility_Vehicles	968.01	1	151	NA	NA	1534.707664
53_mg	1012	0	1	.	.	.	.	.	.	.	.	.	.	.	.	.	.	
53_mg	185.78	8	6	1	246	space	1.884084432	cr	FALSE	53_mg	FALSE	Utility_Vehicles	973	1	152	NA	NA	1884.084432
53_mg	1014	0	1	.	.	.	.	.	.	.	.	.	.	.	.	.	.	
53_mg	198.4	9	6	1	211	space	2.30187877	cr	TRUE	53_mg	TRUE	Utility_Vehicles	978.35	1	153	NA	NA	2301.87877
53_mg	276	2	1	.	.	.	.	.	.	.	.	.	.	.	.	.	.	
53_mg	140.77	12	7	1	82	space	2.230861602	cr	FALSE	53_mg	FALSE	Utility_Vehicles	984.09	1	154	NA	NA	2230.861602
53_mg	324	2	1	.	.	.	.	.	.	.	.	.	.	.	.	.	.	
53_mg	201.45	10	7	1	136	space	2.573960775	cr	FALSE	53_mg	FALSE	Utility_Vehicles	990.15	1	155	1	28.17	2573.960775
53_mg	1014	0	1	.	.	.	.	.	.	.	.	.	.	.	.	.	.	
53_mg	234	8	6	1	20	return	2.307594071	hi	FALSE	53_mg	TRUE	Utility_Vehicles	999.67	1	156	NA	NA	2307.594071
53_mg	432	1	1	.	.	.	.	.	.	.	.	.	.	.	.	.	.	
53_mg	171.8	9	8	1	75	space	2.011879998	cr	FALSE	53_mg	FALSE	Utility_Vehicles	1005.44	1	157	NA	NA	2011.879998
53_mg	1014	0	1	.	.	.	.	.	.	.	.	.	.	.	.	.	.	
53_mg	169.47	14	11	1	228	space	3.027634099	cr	FALSE	53_mg	FALSE	Utility_Vehicles	1010.9	1	158	NA	NA	3027.634099
53_mg	1012	0	1	.	.	.	.	.	.	.	.	.	.	.	.	.	.	
53_mg	228	3	4	1	268	return	0.958605851	hi	FALSE	53_mg	TRUE	Utility_Vehicles	1017.57	1	159	NA	NA	958.6058506
53_mg	830	1	1	.	.	.	.	.	.	.	.	.	.	.	.	.	.	
53_mg	166.5	11	9	1	33	space	2.339560099	cr	FALSE	53_mg	FALSE	Utility_Vehicles	1021.97	1	160	NA	NA	2339.560099
53_mg	1012	0	1	.	.	.	.	.	.	.	.	.	.	.	.	.	.	
53_mg	303.6	9	7	1	267	space	3.302758498	cr	FALSE	53_mg	FALSE	Utility_Vehicles	1027.76	1	161	0	34.85	3302.758498
53_mg	1014	0	1	.	.	.	.	.	.	.	.	.	.	.	.	.	.	
53_mg	196.73	11	9	1	104	space	2.668870264	cr	FALSE	53_mg	FALSE	Utility_Vehicles	1036.35	1	162	NA	NA	2668.870264
53_mg	1016	0	1	.	.	.	.	.	.	.	.	.	.	.	.	.	.	
53_mg	180.91	10	9	1	21	space	2.306338992	cr	FALSE	53_mg	FALSE	Utility_Vehicles	1042.46	1	163	NA	NA	2306.338992
53_mg	183.2	4	1	.	.	.	.	.	.	.	.	.	.	.	.	.	.	
53_mg	178.17	12	8	1	226	space	2.473137679	cr	FALSE	53_mg	FALSE	Utility_Vehicles	1048.47	1	164	NA	NA	2473.137679
53_mg	1012	0	1	.	.	.	.	.	.	.	.	.	.	.	.	.	.	
53_mg	177.5	11	9	1	227	space	2.472812546	cr	FALSE	53_mg	FALSE	Utility_Vehicles	1054.41	1	165	NA	NA	2472.812546
53_mg	1012	0	1	.	.	.	.	.	.	.	.	.	.	.	.	.	.	
53_mg	175.11	9	8	1	28	space	1.85978267	cr	FALSE	53_mg	FALSE	Utility_Vehicles	1060.33	1	166	0	29.32	1859.78267
53_mg	1012	0	1	.	.	.	.	.	.	.	.	.	.	.	.	.	.	
53_mg	165.56	8	4	1	25	space	1.723541346	cr	FALSE	53_mg	FALSE	Utility_Vehicles	1067.32	1	167	NA	NA	1723.541346
53_mg	1014	0	1	.	.	.	.	.	.	.	.	.	.	.	.	.	.	
53_mg	175.17	11	9	1	37	space	2.490006103	cr	FALSE	53_mg	FALSE	Utility_Vehicles	1072.49	1	168	NA	NA	2490.006103
53_mg	435	1	1	.	.	.	.	.	.	.	.	.	.	.	.	.	.	
53_mg	227.2	4	4	1	53	return	1.22464119	fa	TRUE	53_mg	TRUE	Utility_Vehicles	1078.46	1	169	NA	NA	1224.64119
53_mg	1014	0	1	.	.	.	.	.	.	.	.	.	.	.	.	.	.	
53_mg	271.33	3	3	1	91	return	0.843129047	hi	FALSE	53_mg	TRUE	Utility_Vehicles	1083.29	1	170	0	20.28	843.129047
53_mg	1014	0	1	.	.	.	.	.	.	.	.	.	.	.	.	.	.	
53_mg	191.5	7	8	1	255	space	1.805847994	cr	FALSE	53_mg	FALSE	Utility_Vehicles	1089.31	1	171	NA	NA	1805.847994
53_mg	1012	0	1	.	.	.	.	.	.	.	.	.	.	.	.	.	.	
53_mg	241.25	7	6	1	62	return	2.089568072	hi	FALSE	53_mg	TRUE	Utility_Vehicles	1094.56	1	172	NA	NA	2089.568072
53_mg	1014	0	1	.	.	.	.	.	.	.	.	.	.	.	.	.	.	
53_mg	192.6	9	9	1	78	space	2.223079672	cr	FALSE	53_mg	FALSE	Utility_Vehicles	1100.13	1	173	NA	NA	2223.079672
53_mg	474	2	1	.	.	.	.	.	.	.	.	.	.	.	.	.	.	
53_mg	239	5	3	1	287	return	1.631539726	hi	FALSE	53_mg	TRUE	Utility_Vehicles	1105.8	1	174	0	21.58	1631.539726
53_mg	184.4	4	1	.	.	.	.	.	.	.	.	.	.	.	.	.	.	
53_mg	188.67	8	8	1	111	space	1.939448667	cr	FALSE	53_mg	FALSE	Utility_Vehicles	1114.93	1	175	NA	NA	1939.448667
53_mg	209.5	3	1	.	.	.	.	.	.	.	.	.	.	.	.	.	.	
53_mg	208.5	3	3	1	65	return	0.847624459	fa	TRUE	53_mg	TRUE	Utility_Vehicles	1120.31	1	176	NA	NA	847.6244586
53_mg	160	3	1	.	.	.	.	.	.	.	.	.	.	.	.	.	.	
53_mg	107.4	9	7	1	39	space	2.185238159	cr	FALSE	53_mg	FALSE	Utility_Vehicles	1124.63	1	177	NA	NA	2185.238159
53_mg	330	2	1	.	.	.	.	.	.	.	.	.	.	.	.	.	.	
53_mg	186.17	11	8	1	108	space	2.611661898	cr	FALSE	53_mg	FALSE	Utility_Vehicles	1130.27	1	178	NA	NA	2611.661898
53_mg	890	1	1	.	.	.	.	.	.	.	.	.	.	.	.	.	.	
53_mg	193.25	8	7	1	159	space	1.818179952	cr	FALSE	53_mg	FALSE	Utility_Vehicles	1136.34	1	179	0	28.73	1818.179952
53_mg	1012	0	1	.	.	.	.	.	.	.	.	.	.	.	.	.	.	
53_mg	180.4	9	4	1	277	space	2.118467147	cr	FALSE	53_mg	FALSE	Utility_Vehicles	1144.27	1	180	NA	NA	2118.467147
53_mg	1016	0	1	.	.	.	.	.	.	.	.	.	.	.	.	.	.	
53_mg	177.85	12	10	1	50	space	2.735733281	cr	FALSE	53_mg	FALSE	Utility_Vehicles	1149.82	1	181	NA	NA	2735.733281
53_mg	1010	0	1	.	.	.	.	.	.	.	.	.	.	.	.	.	.	
53_mg	185.07	14	9	1	266	space	3.24011781	cr	FALSE	53_mg	FALSE	Utility_Vehicles	1155.99	1	182	NA	NA	3240.11781
53_mg	1014	0	1	.	.	.	.	.	.	.	.	.	.	.	.	.	.	
53_mg	244	3	3	1	209	return	0.753123677	hi	FALSE	53_mg	TRUE	Utility_Vehicles	1162.7	1	183	NA	NA	753.123677
53_mg	1014	0	1	.	.	.	.	.	.	.	.	.	.	.	.	.	.	
53_mg	199.85	12	8	1	63	space	2.990199827	cr	FALSE	53_mg	FALSE	Utility_Vehicles	1166.92	1	184	0	29.13	2990.199827
53_mg	499	1	1	.	.	.	.	.	.	.	.	.	.	.	.	.	.	
53_mg	169.6	10	6	1	54	space	2.106248454	cr	FALSE	53_mg	FALSE	Utility_Vehicles	1175.69	1	185	NA	NA	2106.248454
53_mg	1012	0	1	.	.	.	.	.	.	.	.	.	.	.	.	.	.	
53_mg	157.56	8	9	1	283	space	1.667581828	cr	FALSE	53_mg	FALSE	Utility_Vehicles	1181.24	1	186	NA	NA	1667.581828
53_mg	430	1	1	.	.	.	.	.	.	.	.	.	.	.	.	.	.	
53_mg	221.5	3	3	1	80	return	0.892975553	fa	TRUE	53_mg	TRUE	Utility_Vehicles	1186.35	1	187	NA	NA	892.9755527
53_mg	1016	0	1	.	.	.	.	.	.	.	.	.	.	.	.	.	.	
53_mg	175	9	8	1	245	space	2.093803964	cr	FALSE	53_mg	FALSE	Utility_Vehicles	1190.69	1	188	NA	NA	2093.803964
53_mg	418	1	1	.	.	.	.	.	.	.	.	.	.	.	.	.	.	
53_mg	180.67	8	7	1	52	space	1.855807398	cr	FALSE	53_mg	FALSE	Utility_Vehicles	1196.22	1	189	NA	NA	1855.807398
53_mg	1000	0	1	.	.	.	.	.	.	.	.	.	.	.	.	.	.	
53_mg	201.64	10	7	1	47	space	2.618920757	cr	FALSE	53_mg	FALSE	Utility_Vehicles	1201.52	1	190	0	31.87	2618.920757
53_mg	1010	0	1	.	.	.	.	.	.	.	.	.	.	.	.	.	.	
53_mg	193	7	8	1	129	space	1.819293175	cr	FALSE	53_mg	FALSE	Utility_Vehicles	1209.75	1	191	NA	NA	1819.293175
53_mg	1016	0	1	.	.	.	.	.	.	.	.	.	.	.	.	.	.	
53_mg	281.33	2	2	1	141	return	0.867432275	hi	FALSE	53_mg	TRUE	Utility_Vehicles	1215.02	1	192	NA	NA	867.4322747
53_mg	1014	0	1	.	.	.	.	.	.	.	.	.	.	.	.	.	.	
53_mg	182.8	9	10	1	195	space	2.155585817	cr	FALSE	53_mg	FALSE	Utility_Vehicles	1219.34	1	193	NA	NA	2155.585817
53_mg	1000	0	1	.	.	.	.	.	.	.	.	.	.	.	.	.	.	
53_mg	177.25	7	7	1	191	space	1.625598261	cr	FALSE	53_mg	FALSE	Utility_Vehicles	1224.93	1	194	NA	NA	1625.598261
53_mg	187.2	4	1	.	.	.	.	.	.	.	.	.	.	.	.	.	.	
53_mg	201.14	7	5	1	168	space	1.62253534	cr	FALSE	53_mg	FALSE	Utility_Vehicles	1230.05	1	195	NA	NA	1622.53534
53_mg	1016	0	1	.	.	.	.	.	.	.	.	.	.	.	.	.	.	
53_mg	193.83	11	8	1	223	space	2.684659554	cr	FALSE	53_mg	FALSE	Utility_Vehicles	1235.12	1	196	0	31.54	2684.659554
53_mg	1016	0	1	.	.	.	.	.	.	.	.	.	.	.	.	.	.	
53_mg	151	5	5	1	76	space	1.140180308	cr	FALSE	53_mg	FALSE	Utility_Vehicles	1243.34	1	197	NA	NA	1140.180308
53_mg	1014	0	1	.	.	.	.	.	.	.	.	.	.	.	.	.	.	
53_mg	175.5	7	7	1	201	space	1.623160314	cr	FALSE	53_mg	FALSE	Utility_Vehicles	1247.93	1	198	NA	NA	1623.160314
53_mg	1004	0	1	.	.	.	.	.	.	.	.	.	.	.	.	.	.	
53_mg	230.29	7	5	1	184	space	1.80149957	cr	FALSE	53_mg	FALSE	Utility_Vehicles	1253.05	1	199	NA	NA	1801.49957
53_mg	1012	0	1	.	.	.	.	.	.	.	.	.	.	.	.	.	.	
53_mg	180.22	8	7	1	279	space	1.897433209	cr	FALSE	53_mg	FALSE	Utility_Vehicles	1258.31	1	200	0	20.32	1897.433209
53_mg	147.2	4	1	.	.	.	.	.	.	.	.	.	.	.	.	.	.	
53_mg	148.2	10	6	1	221	space	1.96329297	cr	FALSE	53_mg	FALSE	Utility_Vehicles	1268.7	1	201	NA	NA	1963.29297
53_mg	1010	0	1	.	.	.	.	.	.	.	.	.	.	.	.	.	.	
53_mg	165	3	2	1	229	return	0.805093993	fa	TRUE	53_mg	TRUE	Utility_Vehicles	1274.2	1	202	NA	NA	805.0939935
53_mg	306	2	1	.	.	.	.	.	.	.	.	.	.	.	.	.	.	
53_mg	145.6	10	7	1	243	space	2.126579708	cr	FALSE	53_mg	FALSE	Utility_Vehicles	1278.47	1	203	NA	NA	2126.579708
53_mg	1012	0	1	.	.	.	.	.	.	.	.	.	.	.	.	.	.	
53_mg	155.33	6	3	1	87	space	1.47268352	cr	FALSE	53_mg	FALSE	Utility_Vehicles	1284.06	1	204	0	23.51	1472.68352
53_mg	455	1	1	.	.	.	.	.	.	.	.	.	.	.	.	.	.	
53_mg	109.8	9	6	1	19	space	1.544458353	cr	FALSE	53_mg	FALSE	Utility_Vehicles	1291.51	1	205	NA	NA	1544.458353
53_mg	292	2	1	.	.	.	.	.	.	.	.	.	.	.	.	.	.	
53_mg	116.6	11	7	1	261	space	2.206990541	cr	FALSE	53_mg	FALSE	Utility_Vehicles	1296.75	1	206	NA	NA	2206.990541
53_mg	1016	0	1	.	.	.	.	.	.	.	.	.	.	.	.	.	.	
53_mg	134	8	6	1	139	space	1.807474758	cr	FALSE	53_mg	FALSE	Utility_Vehicles	1302.4	1	207	NA	NA	1807.474758
53_mg	146.8	5	1	.	.	.	.	.	.	.	.	.	.	.	.	.	.	
53_mg	131.43	7	5	1	196	space	1.539090911	cr	FALSE	53_mg	FALSE	Utility_Vehicles	1307.85	1	208	NA	NA	1539.090911
53_mg	247.33	4	1	.	.	.	.	.	.	.	.	.	.	.	.	.	.	
53_mg	74.44	8	3	1	147	return	1.015498247	hi	FALSE	53_mg	TRUE	Utility_Vehicles	1312.95	1	209	NA	NA	1015.498247
53_mg	445	1	1	.	.	.	.	.	.	.	.	.	.	.	.	.	.	
53_mg	104	9	6	1	275	space	1.863766373	cr	FALSE	53_mg	FALSE	Utility_Vehicles	1317.47	1	210	0	31.3	1863.766373
53_mg	254.67	2	1	.	.	.	.	.	.	.	.	.	.	.	.	.	.	
53_mg	72	6	2	1	26	return	1.42069231	hi	FALSE	53_mg	TRUE	Utility_Vehicles	1325.04	1	211	NA	NA	1420.69231
53_mg	163	3	1	.	.	.	.	.	.	.	.	.	.	.	.	.	.	
53_mg	87.71	7	4	1	138	space	1.505798693	cr	FALSE	53_mg	FALSE	Utility_Vehicles	1330.96	1	212	NA	NA	1505.798693
53_mg	103	6	1	.	.	.	.	.	.	.	.	.	.	.	.	.	.	
53_mg	151	7	5	1	67	return	1.473101024	hi	FALSE	53_mg	TRUE	Utility_Vehicles	1336.35	1	213	0	16.64	1473.101024
53_mg	320.67	2	1	.	.	.	.	.	.	.	.	.	.	.	.	.	.	
53_mg	116.44	8	5	1	149	space	1.543463527	cr	FALSE	53_mg	FALSE	Utility_Vehicles	1343.62	1	214	NA	NA	1543.463527
53_mg	122.4	5	1	.	.	.	.	.	.	.	.	.	.	.	.	.	.	
53_mg	68.5	5	2	1	198	return	0.72581691	hi	FALSE	53_mg	TRUE	Utility_Vehicles	1348.61	1	215	NA	NA	725.8169102
53_mg	120.4	5	1	.	.	.	.	.	.	.	.	.	.	.	.	.	.	
53_mg	120.44	8	4	1	105	space	1.401203762	cr	FALSE	53_mg	FALSE	Utility_Vehicles	1353.86	1	216	NA	NA	1401.203762
53_mg	284	4	1	.	.	.	.	.	.	.	.	.	.	.	.	.	.	
53_mg	137	4	2	1	291	return	0.969977072	hi	FALSE	53_mg	TRUE	Utility_Vehicles	1358.8	1	217	0	19.94	969.9770721
53_mg	199	3	1	.	.	.	.	.	.	.	.	.	.	.	.	.	.	
53_mg	198.57	6	6	1	107	space	1.572524985	cr	TRUE	53_mg	TRUE	Utility_Vehicles	1364.79	1	218	NA	NA	1572.524985
53_mg	416	2	1	.	.	.	.	.	.	.	.	.	.	.	.	.	.	
53_mg	210.4	9	6	1	242	space	2.406480299	cr	FALSE	53_mg	FALSE	Utility_Vehicles	1369.82	1	219	NA	NA	2406.480299
53_mg	1014	0	1	.	.	.	.	.	.	.	.	.	.	.	.	.	.	
53_mg	180.6	9	8	1	83	space	2.089504291	cr	FALSE	53_mg	FALSE	Utility_Vehicles	1375.7	1	220	NA	NA	2089.504291
53_mg	1000	0	1	.	.	.	.	.	.	.	.	.	.	.	.	.	.	
53_mg	221.11	9	4	1	299	space	2.245454462	cr	FALSE	53_mg	FALSE	Utility_Vehicles	1381.23	1	221	NA	NA	2245.454462
53_mg	455	1	1	.	.	.	.	.	.	.	.	.	.	.	.	.	.	
53_mg	180.89	10	8	1	59	space	2.006351638	cr	FALSE	53_mg	FALSE	Utility_Vehicles	1386.92	1	222	1	27.58	2006.351638
53_mg	226.5	3	1	.	.	.	.	.	.	.	.	.	.	.	.	.	.	
53_mg	194.75	8	7	1	114	space	1.834914217	cr	FALSE	53_mg	FALSE	Utility_Vehicles	1394.31	1	223	NA	NA	1834.914217
53_mg	499	1	1	.	.	.	.	.	.	.	.	.	.	.	.	.	.	
53_mg	191.69	12	8	1	146	space	2.908970846	cr	FALSE	53_mg	FALSE	Utility_Vehicles	1399.6	1	224	NA	NA	2908.970846
53_mg	182.5	3	1	.	.	.	.	.	.	.	.	.	.	.	.	.	.	
53_mg	186.89	8	6	1	79	space	1.883382116	cr	FALSE	53_mg	FALSE	Utility_Vehicles	1405.97	1	225	NA	NA	1883.382116
53_mg	1014	0	1	.	.	.	.	.	.	.	.	.	.	.	.	.	.	
53_mg	191.56	8	7	1	160	space	1.956135647	cr	FALSE	53_mg	FALSE	Utility_Vehicles	1411.31	1	226	NA	NA	1956.135647
53_mg	1016	0	1	.	.	.	.	.	.	.	.	.	.	.	.	.	.	
53_mg	160.8	9	8	1	10	space	1.890952178	cr	FALSE	53_mg	FALSE	Utility_Vehicles	1416.72	1	227	0	27.93	1890.952178
53_mg	277.33	2	1	.	.	.	.	.	.	.	.	.	.	.	.	.	.	
53_mg	157.5	7	4	1	118	space	1.405888315	cr	FALSE	53_mg	FALSE	Utility_Vehicles	1424.14	1	228	NA	NA	1405.888315
53_mg	182	4	1	.	.	.	.	.	.	.	.	.	.	.	.	.	.	
53_mg	154.18	11	7	1	166	space	2.005895279	cr	FALSE	53_mg	FALSE	Utility_Vehicles	1429.02	1	229	NA	NA	2005.895279
53_mg	1012	0	1	.	.	.	.	.	.	.	.	.	.	.	.	.	.	
53_mg	170.67	8	8	1	31	space	1.831866692	cr	FALSE	53_mg	FALSE	Utility_Vehicles	1434.48	1	230	NA	NA	1831.866692
53_mg	328.67	2	1	.	.	.	.	.	.	.	.	.	.	.	.	.	.	
53_mg	172.67	5	5	1	285	space	1.172065694	cr	FALSE	53_mg	FALSE	Utility_Vehicles	1439.75	1	231	0	20.26	1172.065694
53_mg	326.67	2	1	.	.	.	.	.	.	.	.	.	.	.	.	.	.	
53_mg	182.4	4	3	1	30	return	0.954427874	hi	FALSE	53_mg	TRUE	Utility_Vehicles	1446.43	1	232	NA	NA	954.4278742
53_mg	1012	0	1	.	.	.	.	.	.	.	.	.	.	.	.	.	.	
53_mg	178.29	6	6	1	120	space	1.422808789	cr	FALSE	53_mg	FALSE	Utility_Vehicles	1450.82	1	233	NA	NA	1422.808789
53_mg	499	1	1	.	.	.	.	.	.	.	.	.	.	.	.	.	.	
53_mg	193.75	7	6	1	231	space	1.78044144	cr	FALSE	53_mg	FALSE	Utility_Vehicles	1455.86	1	234	NA	NA	1780.44144
53_mg	1014	0	1	.	.	.	.	.	.	.	.	.	.	.	.	.	.	
53_mg	249.33	2	2	1	204	return	0.722042509	hi	FALSE	53_mg	TRUE	Utility_Vehicles	1461.06	1	235	NA	NA	722.0425092
53_mg	1002	0	1	.	.	.	.	.	.	.	.	.	.	.	.	.	.	
53_mg	180.75	8	7	1	286	space	1.705770101	cr	FALSE	53_mg	FALSE	Utility_Vehicles	1465.33	1	236	0	24.18	1705.770101
53_mg	214.5	4	1	.	.	.	.	.	.	.	.	.	.	.	.	.	.	
53_mg	164.2	9	7	1	98	space	1.932412673	cr	FALSE	53_mg	FALSE	Utility_Vehicles	1472.34	1	237	NA	NA	1932.412673
53_mg	260	2	1	.	.	.	.	.	.	.	.	.	.	.	.	.	.	
53_mg	201.2	9	7	1	215	space	2.256420642	cr	FALSE	53_mg	FALSE	Utility_Vehicles	1477.68	1	238	NA	NA	2256.420642
53_mg	1012	0	1	.	.	.	.	.	.	.	.	.	.	.	.	.	.	
53_mg	174.22	8	8	1	295	space	1.81818655	cr	FALSE	53_mg	FALSE	Utility_Vehicles	1483.38	1	239	NA	NA	1818.18655
53_mg	1014	0	1	.	.	.	.	.	.	.	.	.	.	.	.	.	.	
53_mg	185.5	7	5	1	203	space	1.67320146	cr	FALSE	53_mg	FALSE	Utility_Vehicles	1488.64	1	240	0	21.44	1673.20146
53_mg	234.5	3	1	.	.	.	.	.	.	.	.	.	.	.	.	.	.	
53_mg	157	7	6	1	278	space	1.455658944	cr	FALSE	53_mg	FALSE	Utility_Vehicles	1495.59	1	241	NA	NA	1455.658944
53_mg	1014	0	1	.	.	.	.	.	.	.	.	.	.	.	.	.	.	
53_mg	219.14	6	6	1	178	return	1.722696441	hi	FALSE	53_mg	TRUE	Utility_Vehicles	1500.5	1	242	NA	NA	1722.696441
53_mg	412	1	1	.	.	.	.	.	.	.	.	.	.	.	.	.	.	
53_mg	162.67	5	6	1	132	space	1.122096759	cr	FALSE	53_mg	FALSE	Utility_Vehicles	1505.66	1	243	NA	NA	1122.096759
53_mg	1012	0	1	.	.	.	.	.	.	.	.	.	.	.	.	.	.	
53_mg	235.2	9	6	1	271	space	2.611062584	cr	FALSE	53_mg	FALSE	Utility_Vehicles	1510.23	1	244	NA	NA	2611.062584
53_mg	1014	0	1	.	.	.	.	.	.	.	.	.	.	.	.	.	.	
53_mg	186.67	8	7	1	142	space	1.977190844	cr	FALSE	53_mg	FALSE	Utility_Vehicles	1516.31	1	245	NA	NA	1977.190844
53_mg	846	1	1	.	.	.	.	.	.	.	.	.	.	.	.	.	.	
53_mg	268	5	4	1	55	space	1.701469696	cr	FALSE	53_mg	FALSE	Utility_Vehicles	1521.73	1	246	0	31.28	1701.469696
53_mg	484	1	1	.	.	.	.	.	.	.	.	.	.	.	.	.	.	
53_mg	170.75	7	4	1	232	space	1.594569144	cr	FALSE	53_mg	FALSE	Utility_Vehicles	1528.6	1	247	NA	NA	1594.569144
53_mg	1006	0	1	.	.	.	.	.	.	.	.	.	.	.	.	.	.	
53_mg	176	5	3	1	7	space	1.00084124	cr	FALSE	53_mg	FALSE	Utility_Vehicles	1533.74	1	248	NA	NA	1000.84124
53_mg	1016	0	1	.	.	.	.	.	.	.	.	.	.	.	.	.	.	
53_mg	237.78	8	5	1	217	space	2.473301895	cr	FALSE	53_mg	FALSE	Utility_Vehicles	1538.19	1	249	NA	NA	2473.301895
53_mg	262	2	1	.	.	.	.	.	.	.	.	.	.	.	.	.	.	
53_mg	201	5	5	1	212	space	1.393485612	cr	FALSE	53_mg	FALSE	Utility_Vehicles	1544.11	1	250	0	20.36	1393.485612
53_mg	182.8	4	1	.	.	.	.	.	.	.	.	.	.	.	.	.	.	
53_mg	202	6	5	1	145	space	1.608152149	cr	TRUE	53_mg	TRUE	Utility_Vehicles	1550.93	1	251	NA	NA	1608.152149
53_mg	1012	0	1	.	.	.	.	.	.	.	.	.	.	.	.	.	.	
53_mg	166	7	8	1	199	space	1.555725107	cr	FALSE	53_mg	FALSE	Utility_Vehicles	1555.99	1	252	NA	NA	1555.725107
53_mg	324.67	2	1	.	.	.	.	.	.	.	.	.	.	.	.	.	.	
53_mg	162.57	6	3	1	2	space	1.45124564	cr	FALSE	53_mg	FALSE	Utility_Vehicles	1560.99	1	253	NA	NA	1451.24564
53_mg	1010	0	1	.	.	.	.	.	.	.	.	.	.	.	.	.	.	
53_mg	213	10	7	1	156	space	2.523298688	cr	FALSE	53_mg	FALSE	Utility_Vehicles	1567.58	1	254	2	22.93	2523.298688
53_mg	276	2	1	.	.	.	.	.	.	.	.	.	.	.	.	.	.	
53_mg	347	2	1	1	250	return	1.012886187	hi	FALSE	53_mg	TRUE	Utility_Vehicles	1590.25	1	255	1	18.89	1012.886187
53_mg	220.5	3	1	.	.	.	.	.	.	.	.	.	.	.	.	.	.	
53_mg	165.62	16	8	1	24	space	3.324050489	mi	FALSE	53_mg	TRUE	Utility_Vehicles	1665.77	1	256	3	74.14	3324.050489
53_mg	173	3	1	.	.	.	.	.	.	.	.	.	.	.	.	.	.	
53_mg	76.92	13	6	1	265	space	1.751466855	cr	FALSE	53_mg	FALSE	Utility_Vehicles	1676.03	1	257	NA	NA	1751.466855
53_mg	40.67	6	1	.	.	.	.	.	.	.	.	.	.	.	.	.	.	
53_mg	136.44	9	6	1	172	return	2.039351714	fa	TRUE	53_mg	TRUE	Utility_Vehicles	1681.25	1	258	NA	NA	2039.351714
53_mg	1014	0	1	.	.	.	.	.	.	.	.	.	.	.	.	.	.	
53_mg	155.5	7	6	1	258	space	1.445435768	cr	FALSE	53_mg	FALSE	Utility_Vehicles	1686.74	1	259	NA	NA	1445.435768
53_mg	313.33	2	1	.	.	.	.	.	.	.	.	.	.	.	.	.	.	
53_mg	187.67	5	4	1	220	return	1.322695707	hi	FALSE	53_mg	TRUE	Utility_Vehicles	1691.63	1	260	NA	NA	1322.695707
53_mg	1012	0	1	.	.	.	.	.	.	.	.	.	.	.	.	.	.	
53_mg	198.67	6	5	1	15	space	1.374281876	mi	FALSE	53_mg	TRUE	Utility_Vehicles	1696.4	1	261	0	25.46	1374.281876
53_mg	1014	0	1	.	.	.	.	.	.	.	.	.	.	.	.	.	.	
53_mg	232	2	2	1	121	return	0.671701889	hi	FALSE	53_mg	TRUE	Utility_Vehicles	1703.12	1	262	NA	NA	671.7018894
53_mg	189.2	4	1	.	.	.	.	.	.	.	.	.	.	.	.	.	.	
53_mg	186	4	3	1	6	space	1.038609809	cr	FALSE	53_mg	FALSE	Utility_Vehicles	1707.49	1	263	NA	NA	1038.609809
53_mg	1014	0	1	.	.	.	.	.	.	.	.	.	.	.	.	.	.	
53_mg	180.67	5	6	1	239	space	1.277525324	cr	FALSE	53_mg	FALSE	Utility_Vehicles	1712.21	1	264	NA	NA	1277.525324
53_mg	1000	0	1	.	.	.	.	.	.	.	.	.	.	.	.	.	.	
53_mg	157.67	5	5	1	248	space	1.070599297	cr	FALSE	53_mg	FALSE	Utility_Vehicles	1717.18	1	265	NA	NA	1070.599297
53_mg	498	1	1	.	.	.	.	.	.	.	.	.	.	.	.	.	.	
53_mg	176.67	5	5	1	73	space	1.223708678	cr	FALSE	53_mg	FALSE	Utility_Vehicles	1721.72	1	266	NA	NA	1223.708678
53_mg	416	3	1	.	.	.	.	.	.	.	.	.	.	.	.	.	.	
53_mg	185.75	8	7	1	257	space	1.755955669	cr	FALSE	53_mg	FALSE	Utility_Vehicles	1726.39	1	267	NA	NA	1755.955669
53_mg	1008	0	1	.	.	.	.	.	.	.	.	.	.	.	.	.	.	
53_mg	194.4	9	9	1	94	space	2.213322752	cr	FALSE	53_mg	FALSE	Utility_Vehicles	1731.68	1	268	0	34.67	2213.322752
53_mg	1016	0	1	.	.	.	.	.	.	.	.	.	.	.	.	.	.	
53_mg	187.5	7	7	1	125	space	1.722648422	cr	FALSE	53_mg	FALSE	Utility_Vehicles	1739.18	1	269	NA	NA	1722.648422
53_mg	1016	0	1	.	.	.	.	.	.	.	.	.	.	.	.	.	.	
53_mg	181.71	7	6	1	72	space	1.457032053	cr	FALSE	53_mg	FALSE	Utility_Vehicles	1744.37	1	270	NA	NA	1457.032053
53_mg	275.33	2	1	.	.	.	.	.	.	.	.	.	.	.	.	.	.	
53_mg	215.09	10	8	1	122	space	2.652368394	cr	FALSE	53_mg	FALSE	Utility_Vehicles	1749.29	1	271	NA	NA	2652.368394
53_mg	1016	0	1	.	.	.	.	.	.	.	.	.	.	.	.	.	.	
53_mg	209.75	7	7	1	113	space	1.889205184	cr	FALSE	53_mg	FALSE	Utility_Vehicles	1755.49	1	272	NA	NA	1889.205184
53_mg	1016	0	1	.	.	.	.	.	.	.	.	.	.	.	.	.	.	
53_mg	162.91	10	8	1	270	space	2.11501348	cr	FALSE	53_mg	FALSE	Utility_Vehicles	1761.12	1	273	NA	NA	2115.01348
53_mg	324	2	1	.	.	.	.	.	.	.	.	.	.	.	.	.	.	
53_mg	192.67	8	8	1	197	space	2.031606439	cr	FALSE	53_mg	FALSE	Utility_Vehicles	1766.75	1	274	0	33.08	2031.606439
53_mg	282	3	1	.	.	.	.	.	.	.	.	.	.	.	.	.	.	
53_mg	180.67	5	5	1	241	space	1.22398396	cr	FALSE	53_mg	FALSE	Utility_Vehicles	1774.31	1	275	NA	NA	1223.98396
53_mg	986	1	1	.	.	.	.	.	.	.	.	.	.	.	.	.	.	
53_mg	195.67	5	5	1	190	return	1.272224961	hi	FALSE	53_mg	TRUE	Utility_Vehicles	1779.58	1	276	NA	NA	1272.224961
53_mg	1014	0	1	.	.	.	.	.	.	.	.	.	.	.	.	.	.	
53_mg	146	5	3	1	276	space	1.047915869	cr	FALSE	53_mg	FALSE	Utility_Vehicles	1784.34	1	277	NA	NA	1047.915869
53_mg	237.5	3	1	.	.	.	.	.	.	.	.	.	.	.	.	.	.	
53_mg	211	8	5	1	70	space	1.980121073	cr	FALSE	53_mg	FALSE	Utility_Vehicles	1788.82	1	278	NA	NA	1980.121073
53_mg	330.67	2	1	.	.	.	.	.	.	.	.	.	.	.	.	.	.	
53_mg	178.73	10	7	1	71	space	2.406348339	cr	FALSE	53_mg	FALSE	Utility_Vehicles	1794.24	1	279	NA	NA	2406.348339
53_mg	1012	0	1	.	.	.	.	.	.	.	.	.	.	.	.	.	.	
53_mg	181	7	6	1	11	space	1.655794935	cr	FALSE	53_mg	FALSE	Utility_Vehicles	1800.09	1	280	0	30.92	1655.794935
53_mg	326.67	2	1	.	.	.	.	.	.	.	.	.	.	.	.	.	.	
53_mg	154.25	7	5	1	194	space	1.457111229	cr	FALSE	53_mg	FALSE	Utility_Vehicles	1806.92	1	281	NA	NA	1457.111229
53_mg	1014	0	1	.	.	.	.	.	.	.	.	.	.	.	.	.	.	
53_mg	180.33	5	5	1	137	space	1.311417957	cr	FALSE	53_mg	FALSE	Utility_Vehicles	1811.82	1	282	NA	NA	1311.417957
53_mg	1000	0	1	.	.	.	.	.	.	.	.	.	.	.	.	.	.	
53_mg	176.67	11	9	1	214	space	2.507978219	cr	FALSE	53_mg	FALSE	Utility_Vehicles	1816.54	1	283	NA	NA	2507.978219
53_mg	1012	0	1	.	.	.	.	.	.	.	.	.	.	.	.	.	.	
53_mg	177.33	8	8	1	186	space	1.872662626	cr	FALSE	53_mg	FALSE	Utility_Vehicles	1822.51	1	284	NA	NA	1872.662626
53_mg	1008	0	1	.	.	.	.	.	.	.	.	.	.	.	.	.	.	
53_mg	197.2	10	10	1	169	space	2.323087553	cr	FALSE	53_mg	FALSE	Utility_Vehicles	1828.03	1	285	0	26.91	2323.087553
53_mg	1012	0	1	.	.	.	.	.	.	.	.	.	.	.	.	.	.	
53_mg	181.11	9	7	1	161	space	1.980926024	cr	FALSE	53_mg	FALSE	Utility_Vehicles	1835.83	1	286	NA	NA	1980.926024
53_mg	1014	0	1	.	.	.	.	.	.	.	.	.	.	.	.	.	.	
53_mg	203.43	6	6	1	116	space	1.639157074	cr	FALSE	53_mg	FALSE	Utility_Vehicles	1841.26	1	287	NA	NA	1639.157074
53_mg	411	1	1	.	.	.	.	.	.	.	.	.	.	.	.	.	.	
53_mg	187.25	7	6	1	185	space	1.772700564	cr	FALSE	53_mg	FALSE	Utility_Vehicles	1846.35	1	288	NA	NA	1772.700564
53_mg	1002	0	1	.	.	.	.	.	.	.	.	.	.	.	.	.	.	
53_mg	218.4	5	4	1	208	return	1.204245422	fa	TRUE	53_mg	TRUE	Utility_Vehicles	1851.67	1	289	NA	NA	1204.245422
53_mg	1014	0	1	.	.	.	.	.	.	.	.	.	.	.	.	.	.	
53_mg	198.25	7	6	1	41	space	1.862737825	cr	FALSE	53_mg	FALSE	Utility_Vehicles	1856.31	1	290	NA	NA	1862.737825
53_mg	500	1	1	.	.	.	.	.	.	.	.	.	.	.	.	.	.	
53_mg	200	7	6	1	40	space	1.607422341	cr	FALSE	53_mg	FALSE	Utility_Vehicles	1861.78	1	291	0	31.03	1607.422341
53_mg	427	2	1	.	.	.	.	.	.	.	.	.	.	.	.	.	.	
53_mg	192	5	6	1	3	space	1.334528786	cr	FALSE	53_mg	FALSE	Utility_Vehicles	1869.17	1	292	NA	NA	1334.528786
53_mg	273.33	2	1	.	.	.	.	.	.	.	.	.	.	.	.	.	.	
53_mg	217.2	9	8	1	193	space	2.485491264	cr	FALSE	53_mg	FALSE	Utility_Vehicles	1874.24	1	293	NA	NA	2485.491264
53_mg	423	1	1	.	.	.	.	.	.	.	.	.	.	.	.	.	.	
53_mg	186.44	8	8	1	66	space	1.934994309	cr	FALSE	53_mg	FALSE	Utility_Vehicles	1880.18	1	294	NA	NA	1934.994309
53_mg	1012	0	1	.	.	.	.	.	.	.	.	.	.	.	.	.	.	
53_mg	175.14	6	6	1	29	space	1.417906503	cr	FALSE	53_mg	FALSE	Utility_Vehicles	1885.55	1	295	NA	NA	1417.906503
53_mg	1016	0	1	.	.	.	.	.	.	.	.	.	.	.	.	.	.	
53_mg	181	5	5	1	238	space	1.225018373	cr	FALSE	53_mg	FALSE	Utility_Vehicles	1890.42	1	296	NA	NA	1225.018373
53_mg	501	1	1	.	.	.	.	.	.	.	.	.	.	.	.	.	.	
53_mg	173.25	7	5	1	252	space	1.651446878	cr	FALSE	53_mg	FALSE	Utility_Vehicles	1895.1	1	297	0	31.05	1651.446878
53_mg	1014	0	1	.	.	.	.	.	.	.	.	.	.	.	.	.	.	
53_mg	318	2	2	1	148	return	0.934177262	fa	TRUE	53_mg	TRUE	Utility_Vehicles	1902.14	1	298	NA	NA	934.1772616
53_mg	290	2	1	.	.	.	.	.	.	.	.	.	.	.	.	.	.	
53_mg	208.67	2	3	1	174	return	0.638390977	fa	TRUE	53_mg	TRUE	Utility_Vehicles	1906.75	1	299	NA	NA	638.3909769
53_mg	1012	0	1	.	.	.	.	.	.	.	.	.	.	.	.	.	.	
53_mg	177.43	7	6	1	35	space	1.489471668	cr	FALSE	53_mg	FALSE	Utility_Vehicles	1910.83	1	300	0	13.64	1489.471668
55_id	306.67	2	1	.	.	.	.	.	.	.	.	.	.	.	.	.	.	
55_id	1028	0	1	.	.	.	.	.	.	.	.	.	.	.	.	.	.	
55_id	1010	0	1	.	.	.	.	.	.	.	.	.	.	.	.	.	.	
55_id	313.33	14	7	2	123	space	5.133736298	cr	FALSE	55_id	FALSE	Cats	1.5	3	1	NA	NA	5133.736298
55_id	412	1	1	.	.	.	.	.	.	.	.	.	.	.	.	.	.	
55_id	192.88	15	9	2	63	space	3.519558743	cr	FALSE	55_id	FALSE	Cats	10.1	3	2	NA	NA	3519.558743
55_id	423	1	1	.	.	.	.	.	.	.	.	.	.	.	.	.	.	
55_id	150.17	11	7	2	113	space	2.158227934	cr	FALSE	55_id	FALSE	Cats	17.17	3	3	0	19.39	2158.227934
55_id	1010	0	1	.	.	.	.	.	.	.	.	.	.	.	.	.	.	
55_id	196.14	14	10	2	119	space	3.206617023	cr	FALSE	55_id	FALSE	Cats	32.28	3	4	NA	NA	3206.617023
55_id	360	2	1	.	.	.	.	.	.	.	.	.	.	.	.	.	.	
55_id	233.33	5	3	2	278	return	1.831168041	hi	FALSE	55_id	TRUE	Cats	38.97	3	5	NA	NA	1831.168041
55_id	419	1	1	.	.	.	.	.	.	.	.	.	.	.	.	.	.	
55_id	441.33	2	2	2	289	return	1.325033219	hi	FALSE	55_id	TRUE	Cats	44.25	3	6	NA	NA	1325.033219
55_id	419	1	1	.	.	.	.	.	.	.	.	.	.	.	.	.	.	
55_id	207	9	8	2	292	space	2.305954844	cr	FALSE	55_id	FALSE	Cats	49.05	3	7	NA	NA	2305.954844
55_id	1014	0	1	.	.	.	.	.	.	.	.	.	.	.	.	.	.	
55_id	179.2	9	5	2	127	space	2.192426639	cr	FALSE	55_id	FALSE	Cats	54.84	3	8	0	28.23	2192.426639
55_id	994	1	1	.	.	.	.	.	.	.	.	.	.	.	.	.	.	
55_id	470.29	6	3	2	219	return	3.393484879	fa	TRUE	55_id	TRUE	Cats	63.01	3	9	NA	NA	3393.484879
55_id	225.33	2	1	.	.	.	.	.	.	.	.	.	.	.	.	.	.	
55_id	188.44	8	6	2	232	space	1.901725917	cr	FALSE	55_id	FALSE	Cats	69.88	3	10	NA	NA	1901.725917
55_id	442	1	1	.	.	.	.	.	.	.	.	.	.	.	.	.	.	
55_id	332.8	4	3	2	120	return	1.722267573	hi	FALSE	55_id	TRUE	Cats	75.27	3	11	NA	NA	1722.267573
55_id	195.33	2	1	.	.	.	.	.	.	.	.	.	.	.	.	.	.	
55_id	167.33	8	5	2	69	space	1.722454149	cr	FALSE	55_id	FALSE	Cats	80.49	3	12	NA	NA	1722.454149
55_id	1006	0	1	.	.	.	.	.	.	.	.	.	.	.	.	.	.	
55_id	246.89	8	5	2	275	space	2.469857026	cr	FALSE	55_id	FALSE	Cats	85.64	3	13	0	28.58	2469.857026
55_id	500	1	1	.	.	.	.	.	.	.	.	.	.	.	.	.	.	
55_id	207.08	13	8	2	15	space	3.189762162	cr	FALSE	55_id	FALSE	Cats	94.6	3	14	NA	NA	3189.762162
55_id	1006	0	1	.	.	.	.	.	.	.	.	.	.	.	.	.	.	
55_id	198	7	3	2	179	space	1.70216908	cr	FALSE	55_id	FALSE	Cats	101.37	3	15	NA	NA	1702.16908
55_id	1014	0	1	.	.	.	.	.	.	.	.	.	.	.	.	.	.	
55_id	256	8	6	2	258	space	2.52178189	cr	FALSE	55_id	FALSE	Cats	106.54	3	16	NA	NA	2521.78189
55_id	1014	0	1	.	.	.	.	.	.	.	.	.	.	.	.	.	.	
55_id	251.4	9	7	2	267	space	2.775828732	cr	FALSE	55_id	FALSE	Cats	112.7	3	17	1	24.38	2775.828732
55_id	428	1	1	.	.	.	.	.	.	.	.	.	.	.	.	.	.	
55_id	234.53	14	6	2	23	space	3.925256083	cr	FALSE	55_id	FALSE	Cats	122.47	3	18	NA	NA	3925.256083
55_id	616	1	1	.	.	.	.	.	.	.	.	.	.	.	.	.	.	
55_id	212.33	5	3	2	182	return	1.403761938	hi	FALSE	55_id	TRUE	Cats	129.9	3	19	NA	NA	1403.761938
55_id	146.67	3	1	.	.	.	.	.	.	.	.	.	.	.	.	.	.	
55_id	355.6	10	6	2	207	space	3.886602654	cr	FALSE	55_id	FALSE	Cats	134.75	3	20	NA	NA	3886.602654
55_id	418	1	1	.	.	.	.	.	.	.	.	.	.	.	.	.	.	
55_id	221.83	11	8	2	95	space	3.030117865	cr	FALSE	55_id	FALSE	Cats	142.11	3	21	0	26.13	3030.117865
55_id	370	1	1	.	.	.	.	.	.	.	.	.	.	.	.	.	.	
55_id	209.6	14	8	2	126	space	3.600270516	cr	FALSE	55_id	FALSE	Cats	150.78	3	22	NA	NA	3600.270516
55_id	876	1	1	.	.	.	.	.	.	.	.	.	.	.	.	.	.	
55_id	344.77	12	7	2	271	space	4.937299931	cr	FALSE	55_id	FALSE	Cats	157.83	3	23	NA	NA	4937.299931
55_id	429	1	1	.	.	.	.	.	.	.	.	.	.	.	.	.	.	
55_id	218.73	11	7	2	83	space	2.80730651	cr	FALSE	55_id	FALSE	Cats	166.52	3	24	NA	NA	2807.30651
55_id	336	1	1	.	.	.	.	.	.	.	.	.	.	.	.	.	.	
55_id	208.4	9	7	2	21	space	2.360126314	cr	FALSE	55_id	FALSE	Cats	173.1	3	25	0	28.13	2360.126314
55_id	376	1	1	.	.	.	.	.	.	.	.	.	.	.	.	.	.	
55_id	212.67	8	6	2	210	space	2.177734076	mi	FALSE	55_id	TRUE	Cats	181.62	3	26	NA	NA	2177.734076
55_id	423	1	1	.	.	.	.	.	.	.	.	.	.	.	.	.	.	
55_id	553	9	6	2	160	space	6.071676231	cr	FALSE	55_id	FALSE	Cats	187.26	3	27	NA	NA	6071.676231
55_id	413	1	1	.	.	.	.	.	.	.	.	.	.	.	.	.	.	
55_id	276.57	6	5	2	136	return	2.105067785	hi	FALSE	55_id	TRUE	Cats	197.7	3	28	0	21.66	2105.067785
55_id	354	2	1	.	.	.	.	.	.	.	.	.	.	.	.	.	.	
55_id	468.33	12	6	2	22	space	6.355241256	cr	FALSE	55_id	FALSE	Cats	205.22	3	29	NA	NA	6355.241256
55_id	972	1	1	.	.	.	.	.	.	.	.	.	.	.	.	.	.	
55_id	208.2	9	8	2	5	space	2.318568315	cr	FALSE	55_id	FALSE	Cats	215.35	3	30	NA	NA	2318.568315
55_id	1014	0	1	.	.	.	.	.	.	.	.	.	.	.	.	.	.	
55_id	262.5	7	5	2	91	space	2.339298747	cr	FALSE	55_id	FALSE	Cats	221.13	3	31	NA	NA	2339.298747
55_id	1012	0	1	.	.	.	.	.	.	.	.	.	.	.	.	.	.	
55_id	240.33	11	6	2	50	space	3.31020943	cr	FALSE	55_id	FALSE	Cats	226.97	3	32	1	28.51	3310.20943
55_id	1014	0	1	.	.	.	.	.	.	.	.	.	.	.	.	.	.	
55_id	216.22	8	5	2	80	space	2.221855017	cr	FALSE	55_id	FALSE	Cats	235.93	3	33	NA	NA	2221.855017
55_id	280	2	1	.	.	.	.	.	.	.	.	.	.	.	.	.	.	
55_id	212.6	10	7	2	213	space	2.972853051	cr	FALSE	55_id	FALSE	Cats	241.7	3	34	NA	NA	2972.853051
55_id	265.33	2	1	.	.	.	.	.	.	.	.	.	.	.	.	.	.	
55_id	236.22	8	5	2	11	space	2.316370827	mi	FALSE	55_id	TRUE	Cats	248.34	3	35	NA	NA	2316.370827
55_id	391	1	1	.	.	.	.	.	.	.	.	.	.	.	.	.	.	
55_id	317.5	7	6	2	84	space	2.789188872	cr	FALSE	55_id	FALSE	Cats	254.11	3	36	NA	NA	2789.188872
55_id	394	1	1	.	.	.	.	.	.	.	.	.	.	.	.	.	.	
55_id	203.17	11	7	2	221	space	2.791620221	cr	FALSE	55_id	FALSE	Cats	260.36	3	37	1	30.7	2791.620221
55_id	1014	0	1	.	.	.	.	.	.	.	.	.	.	.	.	.	.	
55_id	216.55	10	8	2	25	space	2.71299377	cr	FALSE	55_id	FALSE	Cats	272.14	3	38	NA	NA	2712.99377
55_id	1014	0	1	.	.	.	.	.	.	.	.	.	.	.	.	.	.	
55_id	202	9	7	2	131	space	2.106327629	cr	FALSE	55_id	FALSE	Cats	278.31	3	39	NA	NA	2106.327629
55_id	417	1	1	.	.	.	.	.	.	.	.	.	.	.	.	.	.	
55_id	218.57	13	9	2	55	space	3.491525101	cr	FALSE	55_id	FALSE	Cats	283.88	3	40	NA	NA	3491.525101
55_id	437	1	1	.	.	.	.	.	.	.	.	.	.	.	.	.	.	
55_id	191	9	6	2	228	space	2.145418357	cr	FALSE	55_id	FALSE	Cats	290.84	3	41	NA	NA	2145.418357
55_id	1014	0	1	.	.	.	.	.	.	.	.	.	.	.	.	.	.	
55_id	194.91	10	6	2	64	space	2.468728408	cr	FALSE	55_id	FALSE	Cats	296.43	3	42	0	30.22	2468.728408
55_id	417	1	1	.	.	.	.	.	.	.	.	.	.	.	.	.	.	
55_id	274.91	10	8	2	288	space	3.270552744	cr	FALSE	55_id	FALSE	Cats	311.66	3	43	NA	NA	3270.552744
55_id	116	3	1	.	.	.	.	.	.	.	.	.	.	.	.	.	.	
55_id	201.11	8	7	2	47	space	2.249685955	cr	FALSE	55_id	FALSE	Cats	318.63	3	44	NA	NA	2249.685955
55_id	221.33	2	1	.	.	.	.	.	.	.	.	.	.	.	.	.	.	
55_id	205.27	10	7	2	101	space	2.473519628	cr	FALSE	55_id	FALSE	Cats	324.38	3	45	NA	NA	2473.519628
55_id	375	1	1	.	.	.	.	.	.	.	.	.	.	.	.	.	.	
55_id	187	11	8	2	274	space	2.531792831	cr	FALSE	55_id	FALSE	Cats	330.33	3	46	0	24.66	2531.792831
55_id	351	2	1	.	.	.	.	.	.	.	.	.	.	.	.	.	.	
55_id	284.17	11	8	2	100	space	3.879641437	cr	FALSE	55_id	FALSE	Cats	339.49	3	47	NA	NA	3879.641437
55_id	422	1	1	.	.	.	.	.	.	.	.	.	.	.	.	.	.	
55_id	250	14	9	2	132	space	4.057743534	cr	FALSE	55_id	FALSE	Cats	346.83	3	48	NA	NA	4057.743534
55_id	1006	0	1	.	.	.	.	.	.	.	.	.	.	.	.	.	.	
55_id	200	13	8	2	262	space	3.206713427	cr	FALSE	55_id	FALSE	Cats	354.91	3	49	NA	NA	3206.713427
55_id	1006	0	1	.	.	.	.	.	.	.	.	.	.	.	.	.	.	
55_id	336.13	14	5	2	224	return	5.705774133	fa	FALSE	55_id	FALSE	Cats	361.62	3	50	0	31.32	5705.774133
55_id	413	1	1	.	.	.	.	.	.	.	.	.	.	.	.	.	.	
55_id	180	10	7	2	36	space	2.089351072	cr	FALSE	55_id	FALSE	Cats	373.7	3	51	NA	NA	2089.351072
55_id	329	2	1	.	.	.	.	.	.	.	.	.	.	.	.	.	.	
55_id	177.56	8	6	2	268	space	1.998158069	cr	FALSE	55_id	FALSE	Cats	379.24	3	52	NA	NA	1998.158069
55_id	1012	0	1	.	.	.	.	.	.	.	.	.	.	.	.	.	.	
55_id	184.6	9	7	2	240	space	2.113215902	mi	FALSE	55_id	TRUE	Cats	384.71	3	53	NA	NA	2113.215902
55_id	249	2	1	.	.	.	.	.	.	.	.	.	.	.	.	.	.	
55_id	189.6	9	7	2	133	space	2.377999095	cr	FALSE	55_id	FALSE	Cats	390.28	3	54	NA	NA	2377.999095
55_id	1018	0	1	.	.	.	.	.	.	.	.	.	.	.	.	.	.	
55_id	251.67	12	7	2	105	space	3.506208133	cr	FALSE	55_id	FALSE	Cats	396.64	3	55	0	30.05	3506.208133
55_id	423	1	1	.	.	.	.	.	.	.	.	.	.	.	.	.	.	
55_id	200.29	7	3	2	115	return	2.358523743	hi	FALSE	55_id	TRUE	Cats	406.85	3	56	NA	NA	2358.523743
55_id	417	1	1	.	.	.	.	.	.	.	.	.	.	.	.	.	.	
55_id	204.14	13	8	2	226	space	3.306774091	cr	FALSE	55_id	FALSE	Cats	412.67	3	57	NA	NA	3306.774091
55_id	406	1	1	.	.	.	.	.	.	.	.	.	.	.	.	.	.	
55_id	206.6	9	6	2	177	return	2.839889447	fa	TRUE	55_id	TRUE	Cats	419.59	3	58	NA	NA	2839.889447
55_id	419	1	1	.	.	.	.	.	.	.	.	.	.	.	.	.	.	
55_id	184.22	8	6	2	92	space	1.888651688	cr	FALSE	55_id	FALSE	Cats	425.91	3	59	0	24.44	1888.651688
55_id	1014	0	1	.	.	.	.	.	.	.	.	.	.	.	.	.	.	
55_id	262.44	9	9	2	20	space	2.668992326	cr	FALSE	55_id	FALSE	Cats	433.35	3	60	NA	NA	2668.992326
55_id	1002	0	1	.	.	.	.	.	.	.	.	.	.	.	.	.	.	
55_id	175.54	13	6	2	166	space	2.748604073	cr	FALSE	55_id	FALSE	Cats	439.57	3	61	NA	NA	2748.604073
55_id	1014	0	1	.	.	.	.	.	.	.	.	.	.	.	.	.	.	
55_id	209.76	16	9	2	283	space	4.144794849	cr	FALSE	55_id	FALSE	Cats	445.76	3	62	NA	NA	4144.794849
55_id	418	1	1	.	.	.	.	.	.	.	.	.	.	.	.	.	.	
55_id	260.62	12	8	2	225	space	3.733294967	cr	FALSE	55_id	FALSE	Cats	453.72	3	63	0	27.72	3733.294967
55_id	1010	1	1	.	.	.	.	.	.	.	.	.	.	.	.	.	.	
55_id	320.92	12	8	2	58	space	4.584046127	cr	FALSE	55_id	FALSE	Cats	463.26	3	64	NA	NA	4584.046127
55_id	415	1	1	.	.	.	.	.	.	.	.	.	.	.	.	.	.	
55_id	233.67	11	8	2	189	space	3.152560651	cr	TRUE	55_id	TRUE	Cats	471.6	3	65	NA	NA	3152.560651
55_id	399	1	1	.	.	.	.	.	.	.	.	.	.	.	.	.	.	
55_id	200.89	8	7	2	72	space	2.050192532	cr	FALSE	55_id	FALSE	Cats	478.2	3	66	0	20.45	2050.192532
55_id	1006	0	1	.	.	.	.	.	.	.	.	.	.	.	.	.	.	
55_id	207.5	7	4	2	85	return	2.179659582	fa	TRUE	55_id	TRUE	Cats	485.86	3	67	NA	NA	2179.659582
55_id	379	1	1	.	.	.	.	.	.	.	.	.	.	.	.	.	.	
55_id	181	11	8	2	71	space	2.579349844	cr	FALSE	55_id	FALSE	Cats	491.51	3	68	NA	NA	2579.349844
55_id	406	1	1	.	.	.	.	.	.	.	.	.	.	.	.	.	.	
55_id	251.33	11	9	2	184	space	3.331950449	cr	FALSE	55_id	FALSE	Cats	497.53	3	69	NA	NA	3331.950449
55_id	398	1	1	.	.	.	.	.	.	.	.	.	.	.	.	.	.	
55_id	357.62	15	9	2	206	space	6.475581858	cr	FALSE	55_id	FALSE	Cats	504.3	3	70	0	28.77	6475.581858
55_id	363	2	1	.	.	.	.	.	.	.	.	.	.	.	.	.	.	
55_id	298.1	21	9	2	186	space	7.266644918	cr	FALSE	55_id	FALSE	Cats	516.69	3	71	NA	NA	7266.644918
55_id	316	1	1	.	.	.	.	.	.	.	.	.	.	.	.	.	.	
55_id	163.5	11	9	2	183	space	2.539725048	cr	FALSE	55_id	FALSE	Cats	527.51	3	72	NA	NA	2539.725048
55_id	412	1	1	.	.	.	.	.	.	.	.	.	.	.	.	.	.	
55_id	207.6	9	8	2	194	space	2.455802633	cr	FALSE	55_id	FALSE	Cats	533.53	3	73	NA	NA	2455.802633
55_id	542	2	1	.	.	.	.	.	.	.	.	.	.	.	.	.	.	
55_id	252.17	11	8	2	153	space	3.411410809	cr	FALSE	55_id	FALSE	Cats	539.45	3	74	0	29.81	3411.410809
55_id	1010	0	1	.	.	.	.	.	.	.	.	.	.	.	.	.	.	
55_id	189.54	12	8	2	28	space	3.094362591	cr	FALSE	55_id	FALSE	Cats	548.56	3	75	NA	NA	3094.362591
55_id	363	1	1	.	.	.	.	.	.	.	.	.	.	.	.	.	.	
55_id	222.44	8	7	2	76	space	2.275820851	cr	FALSE	55_id	FALSE	Cats	555.13	3	76	NA	NA	2275.820851
55_id	1006	0	1	.	.	.	.	.	.	.	.	.	.	.	.	.	.	
55_id	330	2	3	2	293	return	0.985796786	fa	TRUE	55_id	TRUE	Cats	560.95	3	77	NA	NA	985.7967864
55_id	386	1	1	.	.	.	.	.	.	.	.	.	.	.	.	.	.	
55_id	205.14	6	6	2	61	space	1.610819559	cr	FALSE	55_id	FALSE	Cats	565.4	3	78	NA	NA	1610.819559
55_id	1012	0	1	.	.	.	.	.	.	.	.	.	.	.	.	.	.	
55_id	230.6	9	5	2	256	return	2.702312036	hi	FALSE	55_id	TRUE	Cats	570.47	3	79	0	28.11	2702.312036
55_id	1014	0	1	.	.	.	.	.	.	.	.	.	.	.	.	.	.	
55_id	277.83	11	4	2	217	return	3.694810519	hi	FALSE	55_id	TRUE	Cats	578.58	3	80	NA	NA	3694.810519
55_id	1014	0	1	.	.	.	.	.	.	.	.	.	.	.	.	.	.	
55_id	219.33	8	6	2	10	space	2.168690836	cr	FALSE	55_id	FALSE	Cats	585.88	3	81	NA	NA	2168.690836
55_id	393	1	1	.	.	.	.	.	.	.	.	.	.	.	.	.	.	
55_id	311.53	17	7	2	254	space	6.225825891	cr	FALSE	55_id	FALSE	Cats	591.54	3	82	NA	NA	6225.825891
55_id	390	1	1	.	.	.	.	.	.	.	.	.	.	.	.	.	.	
55_id	603.07	14	5	2	114	space	9.881042405	cr	TRUE	55_id	TRUE	Cats	601.43	3	83	0	36.37	9881.042405
55_id	300	1	1	.	.	.	.	.	.	.	.	.	.	.	.	.	.	
55_id	242.55	11	5	2	239	space	3.41235725	cr	FALSE	55_id	FALSE	Cats	617.21	3	84	NA	NA	3412.35725
55_id	138.67	2	1	.	.	.	.	.	.	.	.	.	.	.	.	.	.	
55_id	206	9	7	2	222	space	2.368719794	cr	TRUE	55_id	TRUE	Cats	624.07	3	85	NA	NA	2368.719794
55_id	371	2	1	.	.	.	.	.	.	.	.	.	.	.	.	.	.	
55_id	218.8	10	6	2	270	space	2.589726606	cr	FALSE	55_id	FALSE	Cats	630.01	3	86	2	18.86	2589.726606
55_id	622	0	1	.	.	.	.	.	.	.	.	.	.	.	.	.	.	
55_id	196.15	13	9	2	73	space	3.040703563	cr	FALSE	55_id	FALSE	Cats	639.19	3	87	NA	NA	3040.703563
55_id	192.67	2	1	.	.	.	.	.	.	.	.	.	.	.	.	.	.	
55_id	235.5	9	5	2	109	return	2.807735378	hi	FALSE	55_id	TRUE	Cats	645.68	3	88	NA	NA	2807.735378
55_id	384	1	1	.	.	.	.	.	.	.	.	.	.	.	.	.	.	
55_id	237.43	13	8	2	173	space	3.852670434	cr	FALSE	55_id	FALSE	Cats	652.21	3	89	0	20.85	3852.670434
55_id	1008	0	1	.	.	.	.	.	.	.	.	.	.	.	.	.	.	
55_id	163.33	11	7	2	35	space	2.302064612	cr	FALSE	55_id	FALSE	Cats	661.54	3	90	NA	NA	2302.064612
55_id	1014	0	1	.	.	.	.	.	.	.	.	.	.	.	.	.	.	
55_id	165.67	11	7	2	157	space	2.293916862	cr	FALSE	55_id	FALSE	Cats	667.28	3	91	NA	NA	2293.916862
55_id	397	1	1	.	.	.	.	.	.	.	.	.	.	.	.	.	.	
55_id	254.95	20	9	2	253	space	6.161095848	cr	FALSE	55_id	FALSE	Cats	673.04	3	92	NA	NA	6161.095848
55_id	335	1	1	.	.	.	.	.	.	.	.	.	.	.	.	.	.	
55_id	240.67	11	8	2	279	space	3.269357047	cr	FALSE	55_id	FALSE	Cats	682.98	3	93	0	28.46	3269.357047
55_id	828	1	1	.	.	.	.	.	.	.	.	.	.	.	.	.	.	
55_id	217.85	12	5	2	220	space	4.050283071	cr	FALSE	55_id	FALSE	Cats	691.94	3	94	NA	NA	4050.283071
55_id	1012	0	1	.	.	.	.	.	.	.	.	.	.	.	.	.	.	
55_id	203.6	14	9	2	248	space	3.658224452	cr	FALSE	55_id	FALSE	Cats	699.56	3	95	NA	NA	3658.224452
55_id	870	1	1	.	.	.	.	.	.	.	.	.	.	.	.	.	.	
55_id	422.56	17	6	2	45	return	8.71058808	hi	FALSE	55_id	TRUE	Cats	706.83	3	96	0	27.26	8710.58808
55_id	1008	0	1	.	.	.	.	.	.	.	.	.	.	.	.	.	.	
55_id	202.73	10	7	2	62	space	2.539581359	cr	FALSE	55_id	FALSE	Cats	721.26	3	97	NA	NA	2539.581359
55_id	1014	0	1	.	.	.	.	.	.	.	.	.	.	.	.	.	.	
55_id	208.67	8	5	2	227	space	2.09074031	cr	FALSE	55_id	FALSE	Cats	727.25	3	98	NA	NA	2090.74031
55_id	1012	0	1	.	.	.	.	.	.	.	.	.	.	.	.	.	.	
55_id	224	14	8	2	121	space	3.72324737	cr	FALSE	55_id	FALSE	Cats	732.82	3	99	NA	NA	3723.24737
55_id	404	1	1	.	.	.	.	.	.	.	.	.	.	.	.	.	.	
55_id	213.8	9	8	2	259	space	2.386796378	cr	FALSE	55_id	FALSE	Cats	740.16	3	100	0	24.76	2386.796378
55_id	1012	0	1	.	.	.	.	.	.	.	.	.	.	.	.	.	.	
55_id	429.5	11	7	2	97	space	5.596600217	cr	FALSE	55_id	FALSE	Cats	747.85	3	101	NA	NA	5596.600217
55_id	898	1	1	.	.	.	.	.	.	.	.	.	.	.	.	.	.	
55_id	485.44	17	8	2	118	space	9.54382165	cr	FALSE	55_id	FALSE	Cats	757.35	3	102	NA	NA	9543.82165
55_id	107.5	3	1	.	.	.	.	.	.	.	.	.	.	.	.	.	.	
55_id	200.8	9	8	2	18	space	2.31060824	cr	FALSE	55_id	FALSE	Cats	770.48	3	103	NA	NA	2310.60824
55_id	391	2	1	.	.	.	.	.	.	.	.	.	.	.	.	.	.	
55_id	225.5	16	10	2	294	space	4.251225113	cr	FALSE	55_id	FALSE	Cats	776.27	3	104	2	36.15	4251.225113
55_id	403	1	1	.	.	.	.	.	.	.	.	.	.	.	.	.	.	
55_id	251.33	5	4	2	144	return	1.984987803	fa	TRUE	55_id	TRUE	Cats	786.13	3	105	NA	NA	1984.987803
55_id	365	1	1	.	.	.	.	.	.	.	.	.	.	.	.	.	.	
55_id	222.17	11	9	2	17	space	2.964611462	cr	FALSE	55_id	FALSE	Cats	791.57	3	106	NA	NA	2964.611462
55_id	393	1	1	.	.	.	.	.	.	.	.	.	.	.	.	.	.	
55_id	218.18	11	7	2	238	space	2.823730671	cr	FALSE	55_id	FALSE	Cats	798.2	3	107	NA	NA	2823.730671
55_id	258	1	1	.	.	.	.	.	.	.	.	.	.	.	.	.	.	
55_id	328	5	4	2	94	return	2.125708777	fa	TRUE	55_id	TRUE	Cats	804.64	3	108	0	24.14	2125.708777
55_id	894	1	1	.	.	.	.	.	.	.	.	.	.	.	.	.	.	
55_id	388	2	2	2	9	return	1.167735598	hi	FALSE	55_id	TRUE	Cats	812.53	3	109	NA	NA	1167.735598
55_id	1014	0	1	.	.	.	.	.	.	.	.	.	.	.	.	.	.	
55_id	220.67	11	8	2	70	space	3.111425655	cr	FALSE	55_id	FALSE	Cats	817.15	3	110	NA	NA	3111.425655
55_id	926	1	1	.	.	.	.	.	.	.	.	.	.	.	.	.	.	
55_id	382.8	9	7	2	141	return	4.52446836	hi	FALSE	55_id	TRUE	Cats	823.72	3	111	NA	NA	4524.46836
55_id	160	2	1	.	.	.	.	.	.	.	.	.	.	.	.	.	.	
55_id	382	2	3	2	29	return	1.146848648	hi	FALSE	55_id	TRUE	Cats	831.71	3	112	NA	NA	1146.848648
55_id	1006	0	1	.	.	.	.	.	.	.	.	.	.	.	.	.	.	
55_id	222.73	10	9	2	106	space	2.758847043	cr	FALSE	55_id	FALSE	Cats	836.55	3	113	0	30.36	2758.847043
55_id	1010	0	1	.	.	.	.	.	.	.	.	.	.	.	.	.	.	
55_id	226.89	8	8	2	162	space	2.341895411	cr	FALSE	55_id	FALSE	Cats	844.47	3	114	NA	NA	2341.895411
55_id	1012	0	1	.	.	.	.	.	.	.	.	.	.	.	.	.	.	
55_id	272.14	14	7	2	149	space	4.522115087	cr	FALSE	55_id	FALSE	Cats	850.28	3	115	NA	NA	4522.115087
55_id	1032	0	1	.	.	.	.	.	.	.	.	.	.	.	.	.	.	
55_id	227.25	8	7	2	41	space	2.168533218	cr	FALSE	55_id	FALSE	Cats	858.3	3	116	NA	NA	2168.533218
55_id	330	2	1	.	.	.	.	.	.	.	.	.	.	.	.	.	.	
55_id	182.5	15	10	2	33	space	3.49691307	cr	FALSE	55_id	FALSE	Cats	864.07	3	117	NA	NA	3496.91307
55_id	1008	0	1	.	.	.	.	.	.	.	.	.	.	.	.	.	.	
55_id	209.25	7	7	2	26	space	1.955375781	cr	FALSE	55_id	FALSE	Cats	871.24	3	118	0	32.2	1955.375781
55_id	430	1	1	.	.	.	.	.	.	.	.	.	.	.	.	.	.	
55_id	206.91	10	8	2	264	space	2.6074469	cr	FALSE	55_id	FALSE	Cats	878.38	3	119	NA	NA	2607.4469
55_id	419	1	1	.	.	.	.	.	.	.	.	.	.	.	.	.	.	
55_id	277.44	17	9	2	77	space	5.579212753	cr	FALSE	55_id	FALSE	Cats	884.64	3	120	NA	NA	5579.212753
55_id	1012	0	1	.	.	.	.	.	.	.	.	.	.	.	.	.	.	
55_id	174.43	13	9	2	122	space	2.884518431	cr	FALSE	55_id	FALSE	Cats	893.7	3	121	0	21.69	2884.518431
55_id	447	1	1	.	.	.	.	.	.	.	.	.	.	.	.	.	.	
55_id	188.53	14	10	2	204	space	3.316462466	cr	FALSE	55_id	FALSE	Cats	901.73	3	122	NA	NA	3316.462466
55_id	214	2	1	.	.	.	.	.	.	.	.	.	.	.	.	.	.	
55_id	168.6	10	6	2	39	space	1.974501441	cr	FALSE	55_id	FALSE	Cats	908.79	3	123	NA	NA	1974.501441
55_id	341	1	1	.	.	.	.	.	.	.	.	.	.	.	.	.	.	
55_id	208.8	9	7	2	128	space	2.374064143	cr	FALSE	55_id	FALSE	Cats	914.29	3	124	NA	NA	2374.064143
55_id	34	1	1	.	.	.	.	.	.	.	.	.	.	.	.	.	.	
55_id	250.8	4	2	2	93	return	2.074544878	hi	FALSE	55_id	TRUE	Cats	920.18	3	125	NA	NA	2074.544878
55_id	426	1	1	.	.	.	.	.	.	.	.	.	.	.	.	.	.	
55_id	268.8	10	7	2	159	space	3.136035688	cr	FALSE	55_id	FALSE	Cats	926.15	3	126	1	31.04	3136.035688
55_id	1012	0	1	.	.	.	.	.	.	.	.	.	.	.	.	.	.	
55_id	157.45	10	8	2	151	space	2.042377246	cr	FALSE	55_id	FALSE	Cats	935.23	3	127	NA	NA	2042.377246
55_id	1010	0	1	.	.	.	.	.	.	.	.	.	.	.	.	.	.	
55_id	169.82	10	7	2	263	space	2.198702401	cr	FALSE	55_id	FALSE	Cats	940.73	3	128	NA	NA	2198.702401
55_id	1014	0	1	.	.	.	.	.	.	.	.	.	.	.	.	.	.	
55_id	175.23	12	8	2	273	space	2.596643103	cr	FALSE	55_id	FALSE	Cats	946.4	3	129	0	17.26	2596.643103
55_id	1012	0	1	.	.	.	.	.	.	.	.	.	.	.	.	.	.	
55_id	208	8	5	2	90	return	2.513055351	fa	TRUE	55_id	TRUE	Cats	954.41	3	130	NA	NA	2513.055351
55_id	408	1	1	.	.	.	.	.	.	.	.	.	.	.	.	.	.	
55_id	242.47	16	11	2	68	space	4.637175119	cr	FALSE	55_id	FALSE	Cats	960.38	3	131	NA	NA	4637.175119
55_id	412	1	1	.	.	.	.	.	.	.	.	.	.	.	.	.	.	
55_id	172.36	10	7	2	44	space	2.167916675	cr	FALSE	55_id	FALSE	Cats	968.49	3	132	0	19.73	2167.916675
55_id	848	1	1	.	.	.	.	.	.	.	.	.	.	.	.	.	.	
55_id	195.67	11	8	2	172	space	2.828048671	cr	FALSE	55_id	FALSE	Cats	975.91	3	133	NA	NA	2828.048671
55_id	231	2	1	.	.	.	.	.	.	.	.	.	.	.	.	.	.	
55_id	668	8	6	2	257	return	6.305048358	hi	FALSE	55_id	TRUE	Cats	982.19	3	134	NA	NA	6305.048358
55_id	111.33	3	1	.	.	.	.	.	.	.	.	.	.	.	.	.	.	
55_id	198.33	11	7	2	31	space	2.681690471	cr	FALSE	55_id	FALSE	Cats	991.96	3	135	NA	NA	2681.690471
55_id	389	1	1	.	.	.	.	.	.	.	.	.	.	.	.	.	.	
55_id	188.11	19	9	2	140	space	4.288187631	cr	FALSE	55_id	FALSE	Cats	998.11	3	136	0	29.95	4288.187631
55_id	315	2	1	.	.	.	.	.	.	.	.	.	.	.	.	.	.	
55_id	317	4	3	2	251	return	1.661343089	hi	FALSE	55_id	TRUE	Cats	1007.67	3	137	NA	NA	1661.343089
55_id	1016	0	1	.	.	.	.	.	.	.	.	.	.	.	.	.	.	
55_id	231.56	8	6	2	155	space	2.297846315	cr	FALSE	55_id	FALSE	Cats	1012.81	3	138	NA	NA	2297.846315
55_id	1018	0	1	.	.	.	.	.	.	.	.	.	.	.	.	.	.	
55_id	376	12	8	2	244	space	5.327887571	cr	FALSE	55_id	FALSE	Cats	1018.6	3	139	NA	NA	5327.887571
55_id	1008	0	1	.	.	.	.	.	.	.	.	.	.	.	.	.	.	
55_id	211.64	10	8	2	3	space	2.608405804	cr	FALSE	55_id	FALSE	Cats	1027.56	3	140	0	26	2608.405804
55_id	1014	0	1	.	.	.	.	.	.	.	.	.	.	.	.	.	.	
55_id	190.17	11	7	2	152	space	2.989795152	cr	FALSE	55_id	FALSE	Cats	1035.92	3	141	NA	NA	2989.795152
55_id	1004	0	1	.	.	.	.	.	.	.	.	.	.	.	.	.	.	
55_id	194	10	7	2	197	space	2.402019343	cr	FALSE	55_id	FALSE	Cats	1042.43	3	142	NA	NA	2402.019343
55_id	396	1	1	.	.	.	.	.	.	.	.	.	.	.	.	.	.	
55_id	497.27	10	8	2	124	space	5.87373003	cr	FALSE	55_id	FALSE	Cats	1048.67	3	143	0	22.11	5873.73003
55_id	402	1	1	.	.	.	.	.	.	.	.	.	.	.	.	.	.	
55_id	469.5	15	7	2	175	return	8.884706473	hi	FALSE	55_id	TRUE	Cats	1059.96	3	144	NA	NA	8884.706473
55_id	356	2	1	.	.	.	.	.	.	.	.	.	.	.	.	.	.	
55_id	219.43	13	10	2	167	space	3.47392357	cr	FALSE	55_id	FALSE	Cats	1072.48	3	145	NA	NA	3473.92357
55_id	974	1	1	.	.	.	.	.	.	.	.	.	.	.	.	.	.	
55_id	200.86	13	10	2	187	space	3.20696085	cr	FALSE	55_id	FALSE	Cats	1079.56	3	146	0	26.35	3206.96085
55_id	802	0	1	.	.	.	.	.	.	.	.	.	.	.	.	.	.	
55_id	194.8	9	8	2	4	space	2.194317688	cr	FALSE	55_id	FALSE	Cats	1088.01	3	147	NA	NA	2194.317688
55_id	1012	0	1	.	.	.	.	.	.	.	.	.	.	.	.	.	.	
55_id	221.85	13	8	2	181	space	3.905709987	cr	FALSE	55_id	FALSE	Cats	1093.67	3	148	NA	NA	3905.709987
55_id	1014	0	1	.	.	.	.	.	.	.	.	.	.	.	.	.	.	
55_id	172	4	2	2	103	return	1.256234433	hi	FALSE	55_id	TRUE	Cats	1101.05	3	149	NA	NA	1256.234433
55_id	1014	0	1	.	.	.	.	.	.	.	.	.	.	.	.	.	.	
55_id	488.56	17	9	2	201	return	9.657738768	fa	FALSE	55_id	FALSE	Cats	1105.76	3	150	1	30.87	9657.738768
55_id	312	1	1	.	.	.	.	.	.	.	.	.	.	.	.	.	.	
55_id	205.33	8	8	2	56	space	2.141936832	cr	FALSE	55_id	FALSE	Cats	1124.24	3	151	NA	NA	2141.936832
55_id	200.67	2	1	.	.	.	.	.	.	.	.	.	.	.	.	.	.	
55_id	206	9	7	2	74	space	2.235194997	cr	FALSE	55_id	FALSE	Cats	1129.86	3	152	NA	NA	2235.194997
55_id	345	1	1	.	.	.	.	.	.	.	.	.	.	.	.	.	.	
55_id	211	9	9	2	229	space	2.336585151	cr	FALSE	55_id	FALSE	Cats	1136	3	153	NA	NA	2336.585151
55_id	720	0	1	.	.	.	.	.	.	.	.	.	.	.	.	.	.	
55_id	192.6	10	6	2	88	space	2.218517914	cr	FALSE	55_id	FALSE	Cats	1141.81	3	154	NA	NA	2218.517914
55_id	401	1	1	.	.	.	.	.	.	.	.	.	.	.	.	.	.	
55_id	167.54	12	8	2	190	space	2.590957493	cr	FALSE	55_id	FALSE	Cats	1147.99	3	155	1	29.78	2590.957493
55_id	1012	0	1	.	.	.	.	.	.	.	.	.	.	.	.	.	.	
55_id	354.15	12	8	2	81	return	5.40889442	fa	FALSE	55_id	FALSE	Cats	1156.62	3	156	NA	NA	5408.89442
55_id	389	1	1	.	.	.	.	.	.	.	.	.	.	.	.	.	.	
55_id	160.18	10	8	2	215	space	2.078502189	cr	FALSE	55_id	FALSE	Cats	1165.47	3	157	NA	NA	2078.502189
55_id	840	1	1	.	.	.	.	.	.	.	.	.	.	.	.	.	.	
55_id	248.18	10	8	2	16	space	3.302765829	cr	FALSE	55_id	FALSE	Cats	1170.98	3	158	NA	NA	3302.765829
55_id	664	2	1	.	.	.	.	.	.	.	.	.	.	.	.	.	.	
55_id	208.67	9	7	2	37	space	2.151892424	cr	FALSE	55_id	FALSE	Cats	1177.72	3	159	NA	NA	2151.892424
55_id	390	1	1	.	.	.	.	.	.	.	.	.	.	.	.	.	.	
55_id	222.92	12	8	2	117	space	3.440191854	cr	FALSE	55_id	FALSE	Cats	1183.3	3	160	0	33.59	3440.191854
55_id	402	1	1	.	.	.	.	.	.	.	.	.	.	.	.	.	.	
55_id	285.54	13	9	2	164	space	4.166671126	cr	FALSE	55_id	FALSE	Cats	1192.34	3	161	NA	NA	4166.671126
55_id	396	1	1	.	.	.	.	.	.	.	.	.	.	.	.	.	.	
55_id	454	2	2	2	130	return	1.105216606	hi	FALSE	55_id	TRUE	Cats	1200.07	3	162	NA	NA	1105.216606
55_id	246	2	1	.	.	.	.	.	.	.	.	.	.	.	.	.	.	
55_id	195	9	7	2	46	space	2.283083741	cr	FALSE	55_id	FALSE	Cats	1204.65	3	163	NA	NA	2283.083741
55_id	760	1	1	.	.	.	.	.	.	.	.	.	.	.	.	.	.	
55_id	565	1	2	2	199	return	1.06938967	hi	FALSE	55_id	TRUE	Cats	1210.37	3	164	NA	NA	1069.38967
55_id	1018	0	1	.	.	.	.	.	.	.	.	.	.	.	.	.	.	
55_id	175.27	10	6	2	235	space	2.256734045	cr	FALSE	55_id	FALSE	Cats	1214.92	3	165	0	28.3	2256.734045
55_id	1012	0	1	.	.	.	.	.	.	.	.	.	.	.	.	.	.	
55_id	169.75	7	8	2	135	space	1.584639944	cr	FALSE	55_id	FALSE	Cats	1222.85	3	166	NA	NA	1584.639944
55_id	1004	0	1	.	.	.	.	.	.	.	.	.	.	.	.	.	.	
55_id	181.09	10	9	2	281	space	2.27584321	cr	FALSE	55_id	FALSE	Cats	1228.09	3	167	NA	NA	2275.84321
55_id	1012	0	1	.	.	.	.	.	.	.	.	.	.	.	.	.	.	
55_id	184.2	9	8	2	52	space	2.135137998	cr	FALSE	55_id	FALSE	Cats	1233.86	3	168	NA	NA	2135.137998
55_id	344	2	1	.	.	.	.	.	.	.	.	.	.	.	.	.	.	
55_id	237.78	8	8	2	1	space	2.402134074	cr	FALSE	55_id	FALSE	Cats	1239.45	3	169	0	22.44	2402.134074
55_id	1014	0	1	.	.	.	.	.	.	.	.	.	.	.	.	.	.	
55_id	236.22	9	7	2	212	space	2.439259342	cr	FALSE	55_id	FALSE	Cats	1247.07	3	170	NA	NA	2439.259342
55_id	748	0	1	.	.	.	.	.	.	.	.	.	.	.	.	.	.	
55_id	237.57	13	8	2	195	space	3.773812688	cr	FALSE	55_id	FALSE	Cats	1253.13	3	171	NA	NA	3773.812688
55_id	357	1	1	.	.	.	.	.	.	.	.	.	.	.	.	.	.	
55_id	266.62	12	9	2	48	return	3.839987684	fa	TRUE	55_id	TRUE	Cats	1260.61	3	172	0	20.84	3839.987684
55_id	1016	0	1	.	.	.	.	.	.	.	.	.	.	.	.	.	.	
55_id	209.6	9	8	2	218	space	2.392220636	cr	FALSE	55_id	FALSE	Cats	1269.97	3	173	NA	NA	2392.220636
55_id	391	1	1	.	.	.	.	.	.	.	.	.	.	.	.	.	.	
55_id	179.17	11	9	2	286	space	2.539958176	cr	FALSE	55_id	FALSE	Cats	1275.83	3	174	NA	NA	2539.958176
55_id	379	1	1	.	.	.	.	.	.	.	.	.	.	.	.	.	.	
55_id	247.4	9	6	2	54	return	2.679484553	fa	TRUE	55_id	TRUE	Cats	1282	3	175	1	18.2	2679.484553
55_id	1014	0	1	.	.	.	.	.	.	.	.	.	.	.	.	.	.	
55_id	224	13	8	2	243	space	3.386241049	cr	FALSE	55_id	FALSE	Cats	1290.09	3	176	NA	NA	3386.241049
55_id	1014	0	1	.	.	.	.	.	.	.	.	.	.	.	.	.	.	
55_id	338.5	3	3	2	245	return	1.388188181	fa	TRUE	55_id	TRUE	Cats	1296.93	3	177	NA	NA	1388.188181
55_id	1014	0	1	.	.	.	.	.	.	.	.	.	.	.	.	.	.	
55_id	144.6	9	7	2	202	space	1.792530374	cr	FALSE	55_id	FALSE	Cats	1301.8	3	178	NA	NA	1792.530374
55_id	1014	0	1	.	.	.	.	.	.	.	.	.	.	.	.	.	.	
55_id	198	10	8	2	86	space	2.494144858	cr	FALSE	55_id	FALSE	Cats	1307.05	3	179	NA	NA	2494.144858
55_id	1010	0	1	.	.	.	.	.	.	.	.	.	.	.	.	.	.	
55_id	197.33	8	7	2	265	return	1.9921202	hi	FALSE	55_id	TRUE	Cats	1313.22	3	180	0	28.6	1992.1202
55_id	1014	0	1	.	.	.	.	.	.	.	.	.	.	.	.	.	.	
55_id	248.67	9	7	2	30	return	2.830377385	hi	FALSE	55_id	TRUE	Cats	1320.39	3	181	NA	NA	2830.377385
55_id	416	1	1	.	.	.	.	.	.	.	.	.	.	.	.	.	.	
55_id	183.82	10	7	2	51	space	2.352049309	cr	FALSE	55_id	FALSE	Cats	1326.68	3	182	NA	NA	2352.049309
55_id	726	0	1	.	.	.	.	.	.	.	.	.	.	.	.	.	.	
55_id	234.55	10	8	2	8	space	2.909841411	cr	FALSE	55_id	FALSE	Cats	1332.48	3	183	NA	NA	2909.841411
55_id	341	1	1	.	.	.	.	.	.	.	.	.	.	.	.	.	.	
55_id	171.75	16	8	2	299	space	3.436237109	cr	FALSE	55_id	FALSE	Cats	1339.21	3	184	0	25.71	3436.237109
55_id	364	1	1	.	.	.	.	.	.	.	.	.	.	.	.	.	.	
55_id	191	9	8	2	108	space	2.173037793	cr	FALSE	55_id	FALSE	Cats	1348.73	3	185	NA	NA	2173.037793
55_id	1014	0	1	.	.	.	.	.	.	.	.	.	.	.	.	.	.	
55_id	219.2	4	4	2	277	space	1.18442441	cr	FALSE	55_id	FALSE	Cats	1354.57	3	186	NA	NA	1184.42441
55_id	422	1	1	.	.	.	.	.	.	.	.	.	.	.	.	.	.	
55_id	194.67	11	8	2	79	space	2.697001776	cr	FALSE	55_id	FALSE	Cats	1359.21	3	187	NA	NA	2697.001776
55_id	1014	0	1	.	.	.	.	.	.	.	.	.	.	.	.	.	.	
55_id	281.6	9	7	2	14	space	3.144526899	cr	FALSE	55_id	FALSE	Cats	1365.35	3	188	0	23.23	3144.526899
55_id	1014	0	1	.	.	.	.	.	.	.	.	.	.	.	.	.	.	
55_id	160.5	11	7	2	32	space	2.253931011	cr	FALSE	55_id	FALSE	Cats	1375.67	3	189	NA	NA	2253.931011
55_id	1014	0	1	.	.	.	.	.	.	.	.	.	.	.	.	.	.	
55_id	208.5	11	9	2	282	space	2.867151861	cr	FALSE	55_id	FALSE	Cats	1381.41	3	190	NA	NA	2867.151861
55_id	399	1	1	.	.	.	.	.	.	.	.	.	.	.	.	.	.	
55_id	180.44	9	7	2	285	space	1.922575845	cr	FALSE	55_id	FALSE	Cats	1388.07	3	191	1	17.79	1922.575845
55_id	1014	0	1	.	.	.	.	.	.	.	.	.	.	.	.	.	.	
55_id	220.53	14	9	2	169	space	3.849088473	cr	FALSE	55_id	FALSE	Cats	1395.99	3	192	NA	NA	3849.088473
55_id	802	1	1	.	.	.	.	.	.	.	.	.	.	.	.	.	.	
55_id	236.4	5	4	2	250	return	2.063928757	fa	TRUE	55_id	TRUE	Cats	1403.31	3	193	NA	NA	2063.928757
55_id	740	1	1	.	.	.	.	.	.	.	.	.	.	.	.	.	.	
55_id	306.89	8	7	2	66	return	2.981336564	hi	FALSE	55_id	TRUE	Cats	1408.92	3	194	0	19.37	2981.336564
55_id	1016	0	1	.	.	.	.	.	.	.	.	.	.	.	.	.	.	
55_id	359.44	17	9	2	163	space	7.359653094	cr	FALSE	55_id	FALSE	Cats	1417.32	3	195	NA	NA	7359.653094
55_id	78	3	1	.	.	.	.	.	.	.	.	.	.	.	.	.	.	
55_id	385	3	3	2	107	return	1.984997333	hi	FALSE	55_id	TRUE	Cats	1428.15	3	196	NA	NA	1984.997333
55_id	1012	0	1	.	.	.	.	.	.	.	.	.	.	.	.	.	.	
55_id	385.67	17	7	2	112	space	7.776703695	cr	FALSE	55_id	FALSE	Cats	1433.58	3	197	0	27.67	7776.703695
55_id	268	2	1	.	.	.	.	.	.	.	.	.	.	.	.	.	.	
55_id	224.22	8	7	2	214	space	2.290162988	cr	FALSE	55_id	FALSE	Cats	1447.2	3	198	NA	NA	2290.162988
55_id	267.33	2	1	.	.	.	.	.	.	.	.	.	.	.	.	.	.	
55_id	151.6	14	9	2	142	space	2.680927307	cr	FALSE	55_id	FALSE	Cats	1452.93	3	199	NA	NA	2680.927307
55_id	148	2	1	.	.	.	.	.	.	.	.	.	.	.	.	.	.	
55_id	321.33	2	2	2	145	return	0.92280714	hi	FALSE	55_id	TRUE	Cats	1459.19	3	200	NA	NA	922.8071397
55_id	1014	0	1	.	.	.	.	.	.	.	.	.	.	.	.	.	.	
55_id	207.29	13	9	2	148	space	3.374041783	cr	FALSE	55_id	FALSE	Cats	1463.57	3	201	0	23.22	3374.041783
55_id	372	1	1	.	.	.	.	.	.	.	.	.	.	.	.	.	.	
55_id	187.82	10	8	2	260	space	2.322125717	cr	FALSE	55_id	FALSE	Cats	1472.27	3	202	NA	NA	2322.125717
55_id	1012	0	1	.	.	.	.	.	.	.	.	.	.	.	.	.	.	
55_id	212.55	10	10	2	208	space	2.677934398	cr	FALSE	55_id	FALSE	Cats	1478.2	3	203	NA	NA	2677.934398
55_id	808	0	1	.	.	.	.	.	.	.	.	.	.	.	.	.	.	
55_id	184.67	11	9	2	203	space	2.544880256	cr	FALSE	55_id	FALSE	Cats	1484.34	3	204	NA	NA	2544.880256
55_id	784	1	1	.	.	.	.	.	.	.	.	.	.	.	.	.	.	
55_id	213.67	11	7	2	209	space	2.958835313	cr	FALSE	55_id	FALSE	Cats	1490.34	3	205	NA	NA	2958.835313
55_id	1012	0	1	.	.	.	.	.	.	.	.	.	.	.	.	.	.	
55_id	252.4	9	7	2	296	space	2.795702894	cr	FALSE	55_id	FALSE	Cats	1496.78	3	206	0	30.9	2795.702894
55_id	732	0	1	.	.	.	.	.	.	.	.	.	.	.	.	.	.	
55_id	205.45	10	6	2	57	space	2.508270363	cr	FALSE	55_id	FALSE	Cats	1504.67	3	207	NA	NA	2508.270363
55_id	1006	0	1	.	.	.	.	.	.	.	.	.	.	.	.	.	.	
55_id	239.78	8	7	2	234	space	2.397558754	cr	FALSE	55_id	FALSE	Cats	1511.43	3	208	NA	NA	2397.558754
55_id	317	2	1	.	.	.	.	.	.	.	.	.	.	.	.	.	.	
55_id	230.67	11	8	2	102	space	3.075411044	cr	FALSE	55_id	FALSE	Cats	1517.28	3	209	0	19.16	3075.411044
55_id	1012	0	1	.	.	.	.	.	.	.	.	.	.	.	.	.	.	
55_id	227.33	8	8	2	193	space	2.319065729	cr	FALSE	55_id	FALSE	Cats	1525.91	3	210	NA	NA	2319.065729
55_id	1012	0	1	.	.	.	.	.	.	.	.	.	.	.	.	.	.	
55_id	215.12	15	11	2	6	space	4.026271253	cr	FALSE	55_id	FALSE	Cats	1531.69	3	211	NA	NA	4026.271253
55_id	1012	0	1	.	.	.	.	.	.	.	.	.	.	.	.	.	.	
55_id	221.5	11	9	2	178	space	3.057123325	cr	FALSE	55_id	FALSE	Cats	1539.17	3	212	NA	NA	3057.123325
55_id	1014	0	1	.	.	.	.	.	.	.	.	.	.	.	.	.	.	
55_id	316.67	3	3	2	188	return	1.533448187	hi	FALSE	55_id	TRUE	Cats	1545.69	3	213	0	24.79	1533.448187
55_id	1012	0	1	.	.	.	.	.	.	.	.	.	.	.	.	.	.	
55_id	245	7	8	2	200	space	2.174323296	cr	FALSE	55_id	FALSE	Cats	1553.36	3	214	NA	NA	2174.323296
55_id	1014	0	1	.	.	.	.	.	.	.	.	.	.	.	.	.	.	
55_id	330.67	3	2	2	161	return	1.16033525	hi	FALSE	55_id	TRUE	Cats	1559	3	215	NA	NA	1160.33525
55_id	134.4	4	1	.	.	.	.	.	.	.	.	.	.	.	.	.	.	
55_id	187.82	10	9	2	60	space	2.522894379	mi	FALSE	55_id	TRUE	Cats	1563.62	3	216	NA	NA	2522.894379
55_id	1010	0	1	.	.	.	.	.	.	.	.	.	.	.	.	.	.	
55_id	190.6	10	8	2	99	space	2.274871844	cr	FALSE	55_id	FALSE	Cats	1569.62	3	217	NA	NA	2274.871844
55_id	1002	0	1	.	.	.	.	.	.	.	.	.	.	.	.	.	.	
55_id	171.6	9	7	2	138	space	1.968301923	cr	FALSE	55_id	FALSE	Cats	1575.45	3	218	0	28.11	1968.301923
55_id	1014	0	1	.	.	.	.	.	.	.	.	.	.	.	.	.	.	
55_id	215	9	9	2	27	space	2.454522995	cr	FALSE	55_id	FALSE	Cats	1583	3	219	NA	NA	2454.522995
55_id	1012	0	1	.	.	.	.	.	.	.	.	.	.	.	.	.	.	
55_id	194.8	4	3	2	300	return	1.149722061	hi	FALSE	55_id	TRUE	Cats	1588.92	3	220	NA	NA	1149.722061
55_id	1012	0	1	.	.	.	.	.	.	.	.	.	.	.	.	.	.	
55_id	166.6	10	7	2	252	space	2.014938886	cr	FALSE	55_id	FALSE	Cats	1593.52	3	221	NA	NA	2014.938886
55_id	1014	0	1	.	.	.	.	.	.	.	.	.	.	.	.	.	.	
55_id	140.8	9	7	2	19	space	1.622730713	cr	FALSE	55_id	FALSE	Cats	1599.01	3	222	0	21.13	1622.730713
55_id	1012	0	1	.	.	.	.	.	.	.	.	.	.	.	.	.	.	
55_id	276.4	4	3	2	236	return	1.551359089	hi	FALSE	55_id	TRUE	Cats	1606.15	3	223	NA	NA	1551.359089
55_id	1012	0	1	.	.	.	.	.	.	.	.	.	.	.	.	.	.	
55_id	162	11	8	2	246	space	2.291109062	cr	FALSE	55_id	FALSE	Cats	1611.16	3	224	NA	NA	2291.109062
55_id	438	1	1	.	.	.	.	.	.	.	.	.	.	.	.	.	.	
55_id	201.17	11	7	2	191	return	2.890740676	fa	TRUE	55_id	TRUE	Cats	1617.16	3	225	0	17.37	2890.740676
55_id	1014	0	1	.	.	.	.	.	.	.	.	.	.	.	.	.	.	
55_id	160.5	11	8	2	2	space	2.276245686	cr	FALSE	55_id	FALSE	Cats	1625.47	3	226	NA	NA	2276.245686
55_id	258.67	2	1	.	.	.	.	.	.	.	.	.	.	.	.	.	.	
55_id	131.64	10	6	2	143	space	1.839065802	cr	FALSE	55_id	FALSE	Cats	1631.19	3	227	NA	NA	1839.065802
55_id	1012	0	1	.	.	.	.	.	.	.	.	.	.	.	.	.	.	
55_id	262.73	10	7	2	185	space	3.503697975	cr	FALSE	55_id	FALSE	Cats	1636.51	3	228	NA	NA	3503.697975
55_id	385	1	1	.	.	.	.	.	.	.	.	.	.	.	.	.	.	
55_id	186.8	9	9	2	223	space	2.21849922	cr	FALSE	55_id	FALSE	Cats	1643.69	3	229	NA	NA	2218.49922
55_id	431	1	1	.	.	.	.	.	.	.	.	.	.	.	.	.	.	
55_id	180.8	9	8	2	233	space	2.118741329	cr	FALSE	55_id	FALSE	Cats	1649.34	3	230	1	29.45	2118.741329
55_id	1014	0	1	.	.	.	.	.	.	.	.	.	.	.	.	.	.	
55_id	417.33	11	5	2	247	space	5.628112451	cr	FALSE	55_id	FALSE	Cats	1657.88	3	231	NA	NA	5628.112451
55_id	331.33	2	1	.	.	.	.	.	.	.	.	.	.	.	.	.	.	
55_id	199.45	11	7	2	170	space	2.55770193	cr	FALSE	55_id	FALSE	Cats	1666.95	3	232	NA	NA	2557.70193
55_id	1016	0	1	.	.	.	.	.	.	.	.	.	.	.	.	.	.	
55_id	156.67	9	7	2	38	space	1.743285016	cr	FALSE	55_id	FALSE	Cats	1673.17	3	233	NA	NA	1743.285016
55_id	1012	0	1	.	.	.	.	.	.	.	.	.	.	.	.	.	.	
55_id	220	7	7	2	290	return	2.386123752	hi	FALSE	55_id	TRUE	Cats	1678.38	3	234	NA	NA	2386.123752
55_id	1016	0	1	.	.	.	.	.	.	.	.	.	.	.	.	.	.	
55_id	164	10	9	2	65	space	2.139046558	cr	FALSE	55_id	FALSE	Cats	1684.51	3	235	0	32.22	2139.046558
55_id	1014	0	1	.	.	.	.	.	.	.	.	.	.	.	.	.	.	
55_id	192.5	7	8	2	158	space	1.769629213	cr	FALSE	55_id	FALSE	Cats	1693.21	3	236	NA	NA	1769.629213
55_id	1014	0	1	.	.	.	.	.	.	.	.	.	.	.	.	.	.	
55_id	151.25	8	6	2	137	space	1.739380488	cr	FALSE	55_id	FALSE	Cats	1698.42	3	237	NA	NA	1739.380488
55_id	396	1	1	.	.	.	.	.	.	.	.	.	.	.	.	.	.	
55_id	415.88	16	6	2	261	space	7.547962971	cr	FALSE	55_id	FALSE	Cats	1703.65	3	238	0	21.71	7547.962971
55_id	406	1	1	.	.	.	.	.	.	.	.	.	.	.	.	.	.	
55_id	175.83	11	8	2	96	space	2.745340281	cr	FALSE	55_id	FALSE	Cats	1717.12	3	239	NA	NA	2745.340281
55_id	1010	0	1	.	.	.	.	.	.	.	.	.	.	.	.	.	.	
55_id	189	9	6	2	13	space	2.246125255	cr	FALSE	55_id	FALSE	Cats	1723.31	3	240	NA	NA	2246.125255
55_id	414	1	1	.	.	.	.	.	.	.	.	.	.	.	.	.	.	
55_id	360.29	6	5	2	24	return	2.788546304	hi	FALSE	55_id	TRUE	Cats	1729	3	241	0	18.15	2788.546304
55_id	740	2	1	.	.	.	.	.	.	.	.	.	.	.	.	.	.	
55_id	164.36	10	7	2	196	space	2.141848126	cr	FALSE	55_id	FALSE	Cats	1738.06	3	242	NA	NA	2141.848126
55_id	181.33	2	1	.	.	.	.	.	.	.	.	.	.	.	.	.	.	
55_id	172.18	10	8	2	269	space	2.251902871	cr	FALSE	55_id	FALSE	Cats	1743.64	3	243	NA	NA	2251.902871
55_id	253	2	1	.	.	.	.	.	.	.	.	.	.	.	.	.	.	
55_id	286.5	3	3	2	7	return	1.401222089	fa	TRUE	55_id	TRUE	Cats	1749.31	3	244	NA	NA	1401.222089
55_id	1010	0	1	.	.	.	.	.	.	.	.	.	.	.	.	.	.	
55_id	179.82	10	6	2	104	space	2.238680921	cr	FALSE	55_id	FALSE	Cats	1754.47	3	245	NA	NA	2238.680921
55_id	1014	0	1	.	.	.	.	.	.	.	.	.	.	.	.	.	.	
55_id	203.14	6	6	2	266	space	1.571383904	cr	FALSE	55_id	FALSE	Cats	1760.17	3	246	NA	NA	1571.383904
55_id	1012	0	1	.	.	.	.	.	.	.	.	.	.	.	.	.	.	
55_id	225	13	10	2	216	space	3.674493561	cr	FALSE	55_id	FALSE	Cats	1765.23	3	247	1	34.81	3674.493561
55_id	375	1	1	.	.	.	.	.	.	.	.	.	.	.	.	.	.	
55_id	196.5	11	7	2	298	space	2.727262964	cr	FALSE	55_id	FALSE	Cats	1774.69	3	248	NA	NA	2727.262964
55_id	411	1	1	.	.	.	.	.	.	.	.	.	.	.	.	.	.	
55_id	180	10	9	2	249	space	2.272496577	cr	FALSE	55_id	FALSE	Cats	1780.87	3	249	NA	NA	2272.496577
55_id	846	1	1	.	.	.	.	.	.	.	.	.	.	.	.	.	.	
55_id	261.6	9	7	2	150	space	2.957168961	cr	FALSE	55_id	FALSE	Cats	1786.61	3	250	NA	NA	2957.168961
55_id	1012	0	1	.	.	.	.	.	.	.	.	.	.	.	.	.	.	
55_id	184.55	11	7	2	110	space	2.43051411	cr	FALSE	55_id	FALSE	Cats	1793.03	3	251	NA	NA	2430.51411
55_id	369	1	1	.	.	.	.	.	.	.	.	.	.	.	.	.	.	
55_id	183.5	11	7	2	176	space	2.602118679	cr	FALSE	55_id	FALSE	Cats	1798.94	3	252	0	30.29	2602.118679
55_id	1012	0	1	.	.	.	.	.	.	.	.	.	.	.	.	.	.	
55_id	176.18	10	6	2	192	space	2.285239075	cr	FALSE	55_id	FALSE	Cats	1807.31	3	253	NA	NA	2285.239075
55_id	381	1	1	.	.	.	.	.	.	.	.	.	.	.	.	.	.	
55_id	180.46	12	9	2	198	space	2.762395647	cr	FALSE	55_id	FALSE	Cats	1813.05	3	254	NA	NA	2762.395647
55_id	1016	0	1	.	.	.	.	.	.	.	.	.	.	.	.	.	.	
55_id	215.6	9	7	2	116	space	2.357004745	cr	FALSE	55_id	FALSE	Cats	1819.44	3	255	NA	NA	2357.004745
55_id	1016	0	1	.	.	.	.	.	.	.	.	.	.	.	.	.	.	
55_id	166.46	12	10	2	154	space	2.572934059	cr	FALSE	55_id	FALSE	Cats	1825.27	3	256	NA	NA	2572.934059
55_id	1012	0	1	.	.	.	.	.	.	.	.	.	.	.	.	.	.	
55_id	166.5	11	9	2	43	space	2.363718538	cr	FALSE	55_id	FALSE	Cats	1831.31	3	257	1	29.85	2363.718538
55_id	1012	0	1	.	.	.	.	.	.	.	.	.	.	.	.	.	.	
55_id	182.4	9	6	2	230	space	2.21793766	cr	FALSE	55_id	FALSE	Cats	1838.97	3	258	NA	NA	2217.93766
55_id	1014	0	1	.	.	.	.	.	.	.	.	.	.	.	.	.	.	
55_id	233.47	14	7	2	280	space	4.020763787	cr	FALSE	55_id	FALSE	Cats	1844.66	3	259	NA	NA	4020.763787
55_id	435	1	1	.	.	.	.	.	.	.	.	.	.	.	.	.	.	
55_id	447.5	3	3	2	241	return	1.808835405	fa	TRUE	55_id	TRUE	Cats	1852.18	3	260	NA	NA	1808.835405
55_id	1012	0	1	.	.	.	.	.	.	.	.	.	.	.	.	.	.	
55_id	271	3	3	2	139	return	1.171997515	fa	TRUE	55_id	TRUE	Cats	1857.43	3	261	0	23.06	1171.997515
55_id	490	1	1	.	.	.	.	.	.	.	.	.	.	.	.	.	.	
55_id	309.64	10	8	2	297	space	3.903283403	cr	FALSE	55_id	FALSE	Cats	1864.95	3	262	NA	NA	3903.283403
55_id	270	2	1	.	.	.	.	.	.	.	.	.	.	.	.	.	.	
55_id	216.91	11	9	2	284	space	3.158139595	cr	FALSE	55_id	FALSE	Cats	1872.29	3	263	NA	NA	3158.139595
55_id	936	1	1	.	.	.	.	.	.	.	.	.	.	.	.	.	.	
55_id	177.45	11	6	2	180	space	2.77291903	cr	FALSE	55_id	FALSE	Cats	1878.9	3	264	1	20.18	2772.91903
55_id	1012	0	1	.	.	.	.	.	.	.	.	.	.	.	.	.	.	
55_id	209.82	11	10	2	53	space	2.769036862	cr	FALSE	55_id	FALSE	Cats	1888.36	3	265	NA	NA	2769.036862
55_id	399	1	1	.	.	.	.	.	.	.	.	.	.	.	.	.	.	
55_id	174	11	6	2	87	space	2.457736569	cr	FALSE	55_id	FALSE	Cats	1894.58	3	266	NA	NA	2457.736569
55_id	502	1	1	.	.	.	.	.	.	.	.	.	.	.	.	.	.	
55_id	195	9	8	2	98	space	2.218478327	cr	FALSE	55_id	FALSE	Cats	1900.5	3	267	NA	NA	2218.478327
55_id	1014	0	1	.	.	.	.	.	.	.	.	.	.	.	.	.	.	
55_id	193.67	11	10	2	291	space	2.662977184	cr	FALSE	55_id	FALSE	Cats	1906.19	3	268	NA	NA	2662.977184
55_id	1012	0	1	.	.	.	.	.	.	.	.	.	.	.	.	.	.	
55_id	352.4	19	6	2	147	return	8.410976077	fa	FALSE	55_id	FALSE	Cats	1912.31	3	269	0	36.02	8410.976077
55_id	1014	0	1	.	.	.	.	.	.	.	.	.	.	.	.	.	.	
55_id	304	4	3	2	231	return	1.868313103	hi	FALSE	55_id	TRUE	Cats	1926.56	3	270	NA	NA	1868.313103
55_id	1014	0	1	.	.	.	.	.	.	.	.	.	.	.	.	.	.	
55_id	170.2	10	7	2	295	space	2.53001578	cr	FALSE	55_id	FALSE	Cats	1931.89	3	271	NA	NA	2530.01578
55_id	408	1	1	.	.	.	.	.	.	.	.	.	.	.	.	.	.	
55_id	215.5	8	6	2	276	space	2.113714048	cr	FALSE	55_id	FALSE	Cats	1937.85	3	272	NA	NA	2113.714048
55_id	212.67	2	1	.	.	.	.	.	.	.	.	.	.	.	.	.	.	
55_id	211.6	9	8	2	134	space	2.417329182	cr	FALSE	55_id	FALSE	Cats	1943.98	3	273	NA	NA	2417.329182
55_id	1010	0	1	.	.	.	.	.	.	.	.	.	.	.	.	.	.	
55_id	199.56	8	6	2	40	space	2.022176485	cr	FALSE	55_id	FALSE	Cats	1950.17	3	274	1	29.13	2022.176485
55_id	1014	0	1	.	.	.	.	.	.	.	.	.	.	.	.	.	.	
55_id	181.6	10	9	2	171	space	2.175303827	cr	FALSE	55_id	FALSE	Cats	1958.64	3	275	NA	NA	2175.303827
55_id	1014	0	1	.	.	.	.	.	.	.	.	.	.	.	.	.	.	
55_id	259.3	19	6	2	242	space	5.921416436	cr	FALSE	55_id	FALSE	Cats	1964.28	3	276	NA	NA	5921.416436
55_id	1014	0	1	.	.	.	.	.	.	.	.	.	.	.	.	.	.	
55_id	272	3	2	2	67	return	1.760151607	hi	FALSE	55_id	TRUE	Cats	1974.02	3	277	0	20.61	1760.151607
55_id	1012	0	1	.	.	.	.	.	.	.	.	.	.	.	.	.	.	
55_id	156.83	11	8	2	111	space	2.265028784	cr	FALSE	55_id	FALSE	Cats	1981	3	278	NA	NA	2265.028784
55_id	778	0	1	.	.	.	.	.	.	.	.	.	.	.	.	.	.	
55_id	217.64	10	9	2	205	space	2.706647264	cr	FALSE	55_id	FALSE	Cats	1986.73	3	279	NA	NA	2706.647264
55_id	1006	0	1	.	.	.	.	.	.	.	.	.	.	.	.	.	.	
55_id	206.91	10	9	2	34	space	2.618955579	cr	FALSE	55_id	FALSE	Cats	1993.14	3	280	NA	NA	2618.955579
55_id	1010	0	1	.	.	.	.	.	.	.	.	.	.	.	.	.	.	
55_id	399.33	3	2	2	125	return	1.297577998	hi	FALSE	55_id	TRUE	Cats	1999.41	3	281	NA	NA	1297.577998
55_id	1010	0	1	.	.	.	.	.	.	.	.	.	.	.	.	.	.	
55_id	253.5	4	2	2	168	return	1.451224747	hi	FALSE	55_id	TRUE	Cats	2004.3	3	282	0	28.2	1451.224747
55_id	502	1	1	.	.	.	.	.	.	.	.	.	.	.	.	.	.	
55_id	203.45	10	9	2	156	space	2.521279345	cr	FALSE	55_id	FALSE	Cats	2011.3	3	283	NA	NA	2521.279345
55_id	393	1	1	.	.	.	.	.	.	.	.	.	.	.	.	.	.	
55_id	209.64	10	9	2	59	return	3.002777376	fa	TRUE	55_id	TRUE	Cats	2017.41	3	284	NA	NA	3002.777376
55_id	390	1	1	.	.	.	.	.	.	.	.	.	.	.	.	.	.	
55_id	241.8	9	9	2	211	space	2.783819597	cr	FALSE	55_id	FALSE	Cats	2023.95	3	285	0	18.89	2783.819597
55_id	420	1	1	.	.	.	.	.	.	.	.	.	.	.	.	.	.	
55_id	221.45	10	8	2	287	space	2.835668218	cr	FALSE	55_id	FALSE	Cats	2032.4	3	286	NA	NA	2835.668218
55_id	346	1	1	.	.	.	.	.	.	.	.	.	.	.	.	.	.	
55_id	171.07	14	9	2	42	space	3.020770752	cr	FALSE	55_id	FALSE	Cats	2038.71	3	287	NA	NA	3020.770752
55_id	1010	0	1	.	.	.	.	.	.	.	.	.	.	.	.	.	.	
55_id	204.44	8	7	2	237	space	2.074045999	cr	FALSE	55_id	FALSE	Cats	2045.18	3	288	NA	NA	2074.045999
55_id	407	1	1	.	.	.	.	.	.	.	.	.	.	.	.	.	.	
55_id	190.75	16	10	2	78	space	3.803101775	cr	FALSE	55_id	FALSE	Cats	2050.72	3	289	NA	NA	3803.101775
55_id	1012	0	1	.	.	.	.	.	.	.	.	.	.	.	.	.	.	
55_id	170.5	12	8	2	165	space	2.457580051	cr	FALSE	55_id	FALSE	Cats	2058.1	3	290	1	31.63	2457.580051
55_id	1014	0	1	.	.	.	.	.	.	.	.	.	.	.	.	.	.	
55_id	171.6	9	8	2	129	space	1.969693726	cr	FALSE	55_id	FALSE	Cats	2066.43	3	291	NA	NA	1969.693726
55_id	329	1	1	.	.	.	.	.	.	.	.	.	.	.	.	.	.	
55_id	169.2	9	6	2	12	space	1.989748966	cr	FALSE	55_id	FALSE	Cats	2071.87	3	292	NA	NA	1989.748966
55_id	214	2	1	.	.	.	.	.	.	.	.	.	.	.	.	.	.	
55_id	216.89	8	7	2	75	space	2.218513882	cr	FALSE	55_id	FALSE	Cats	2077.3	3	293	NA	NA	2218.513882
55_id	1008	0	1	.	.	.	.	.	.	.	.	.	.	.	.	.	.	
55_id	213.6	9	5	2	82	space	2.472862764	cr	FALSE	55_id	FALSE	Cats	2084.08	3	294	1	23.57	2472.862764
55_id	208.67	2	1	.	.	.	.	.	.	.	.	.	.	.	.	.	.	
55_id	460.67	2	3	2	49	return	1.363252649	hi	FALSE	55_id	TRUE	Cats	2091.75	3	295	NA	NA	1363.252649
55_id	382	1	1	.	.	.	.	.	.	.	.	.	.	.	.	.	.	
55_id	226.89	8	5	2	146	return	2.288204126	fa	TRUE	55_id	TRUE	Cats	2096.73	3	296	NA	NA	2288.204126
55_id	1004	0	1	.	.	.	.	.	.	.	.	.	.	.	.	.	.	
55_id	214.17	11	9	2	272	space	2.889690867	cr	FALSE	55_id	FALSE	Cats	2102.68	3	297	NA	NA	2889.690867
55_id	1014	0	1	.	.	.	.	.	.	.	.	.	.	.	.	.	.	
55_id	172.83	11	9	2	174	space	2.452062688	cr	FALSE	55_id	FALSE	Cats	2109.2	3	298	0	23.36	2452.062688
55_id	355	1	1	.	.	.	.	.	.	.	.	.	.	.	.	.	.	
55_id	201.27	10	10	2	255	space	2.518703207	cr	FALSE	55_id	FALSE	Cats	2116.79	3	299	NA	NA	2518.703207
55_id	1014	0	1	.	.	.	.	.	.	.	.	.	.	.	.	.	.	
55_id	204.15	12	8	2	89	space	3.035881918	cr	FALSE	55_id	FALSE	Cats	2122.79	3	300	0	12.57	3035.881918
56_mt	321.33	2	1	.	.	.	.	.	.	.	.	.	.	.	.	.	.	
56_mt	1000	0	1	.	.	.	.	.	.	.	.	.	.	.	.	.	.	
56_mt	324	2	1	.	.	.	.	.	.	.	.	.	.	.	.	.	.	
56_mt	256.4	4	4	4	19	space	1.394789809	cr	FALSE	56_mt	FALSE	Utility_Vehicles	1.39	5	1	NA	NA	1394.789809
56_mt	1000	0	1	.	.	.	.	.	.	.	.	.	.	.	.	.	.	
56_mt	189.78	8	4	4	44	space	2.006197686	cr	FALSE	56_mt	FALSE	Utility_Vehicles	6.23	5	2	NA	NA	2006.197686
56_mt	1012	0	1	.	.	.	.	.	.	.	.	.	.	.	.	.	.	
56_mt	178.29	6	5	4	162	space	1.434546198	cr	FALSE	56_mt	FALSE	Utility_Vehicles	11.68	5	3	NA	NA	1434.546198
56_mt	503	1	1	.	.	.	.	.	.	.	.	.	.	.	.	.	.	
56_mt	164.44	8	6	4	252	space	1.705745909	cr	FALSE	56_mt	FALSE	Utility_Vehicles	16.53	5	4	1	18.27	1705.745909
56_mt	494	1	1	.	.	.	.	.	.	.	.	.	.	.	.	.	.	
56_mt	186.86	6	5	4	248	space	1.472161547	cr	FALSE	56_mt	FALSE	Utility_Vehicles	26.26	5	5	NA	NA	1472.161547
56_mt	493	1	1	.	.	.	.	.	.	.	.	.	.	.	.	.	.	
56_mt	175.45	11	6	4	134	space	2.26241709	cr	FALSE	56_mt	FALSE	Utility_Vehicles	31.26	5	6	NA	NA	2262.41709
56_mt	324.67	2	1	.	.	.	.	.	.	.	.	.	.	.	.	.	.	
56_mt	168.2	10	6	4	232	space	1.961225608	cr	FALSE	56_mt	FALSE	Utility_Vehicles	37.04	5	7	NA	NA	1961.225608
56_mt	242.5	3	1	.	.	.	.	.	.	.	.	.	.	.	.	.	.	
56_mt	226.5	7	5	4	59	space	2.062888478	cr	FALSE	56_mt	FALSE	Utility_Vehicles	42.46	5	8	0	22.01	2062.888478
56_mt	265.33	2	1	.	.	.	.	.	.	.	.	.	.	.	.	.	.	
56_mt	182	7	5	4	65	return	1.633340237	fa	TRUE	56_mt	TRUE	Utility_Vehicles	50.43	5	9	NA	NA	1633.340237
56_mt	500	1	1	.	.	.	.	.	.	.	.	.	.	.	.	.	.	
56_mt	170	7	6	4	142	space	1.605891247	cr	FALSE	56_mt	FALSE	Utility_Vehicles	55.5	5	10	NA	NA	1605.891247
56_mt	245.5	3	1	.	.	.	.	.	.	.	.	.	.	.	.	.	.	
56_mt	157.33	5	3	4	35	space	1.105148793	cr	FALSE	56_mt	FALSE	Utility_Vehicles	60.55	5	11	NA	NA	1105.148793
56_mt	496	1	1	.	.	.	.	.	.	.	.	.	.	.	.	.	.	
56_mt	187.71	6	4	4	28	space	1.484653323	cr	FALSE	56_mt	FALSE	Utility_Vehicles	65.11	5	12	0	19.66	1484.653323
56_mt	205	3	1	.	.	.	.	.	.	.	.	.	.	.	.	.	.	
56_mt	206.2	10	8	4	103	space	2.422786063	cr	FALSE	56_mt	FALSE	Utility_Vehicles	73.56	5	13	NA	NA	2422.786063
56_mt	328.67	2	1	.	.	.	.	.	.	.	.	.	.	.	.	.	.	
56_mt	122.8	9	4	4	82	space	1.488553818	cr	FALSE	56_mt	FALSE	Utility_Vehicles	79.44	5	14	NA	NA	1488.553818
56_mt	353	1	1	.	.	.	.	.	.	.	.	.	.	.	.	.	.	
56_mt	255.14	6	5	4	20	return	1.972634218	hi	FALSE	56_mt	TRUE	Utility_Vehicles	84.4	5	15	0	18.04	1972.634218
56_mt	326.67	2	1	.	.	.	.	.	.	.	.	.	.	.	.	.	.	
56_mt	173.33	8	5	4	115	space	1.839331553	cr	FALSE	56_mt	FALSE	Utility_Vehicles	91.16	5	16	NA	NA	1839.331553
56_mt	499	1	1	.	.	.	.	.	.	.	.	.	.	.	.	.	.	
56_mt	177.17	11	7	4	159	space	2.47761293	cr	FALSE	56_mt	FALSE	Utility_Vehicles	96.67	5	17	NA	NA	2477.61293
56_mt	500	1	1	.	.	.	.	.	.	.	.	.	.	.	.	.	.	
56_mt	196.2	9	5	4	114	space	2.272496577	cr	FALSE	56_mt	FALSE	Utility_Vehicles	102.59	5	18	NA	NA	2272.496577
56_mt	502	1	1	.	.	.	.	.	.	.	.	.	.	.	.	.	.	
56_mt	167.8	9	7	4	17	space	1.951648666	cr	FALSE	56_mt	FALSE	Utility_Vehicles	108.31	5	19	NA	NA	1951.648666
56_mt	494	1	1	.	.	.	.	.	.	.	.	.	.	.	.	.	.	
56_mt	199.8	9	7	4	195	space	2.345997878	cr	FALSE	56_mt	FALSE	Utility_Vehicles	113.73	5	20	0	28.38	2345.997878
56_mt	227.5	3	1	.	.	.	.	.	.	.	.	.	.	.	.	.	.	
56_mt	189.25	7	5	4	128	space	1.740388877	cr	FALSE	56_mt	FALSE	Utility_Vehicles	120.77	5	21	NA	NA	1740.388877
56_mt	1014	0	1	.	.	.	.	.	.	.	.	.	.	.	.	.	.	
56_mt	263.33	6	4	4	96	space	1.772376164	cr	FALSE	56_mt	FALSE	Utility_Vehicles	125.94	5	22	NA	NA	1772.376164
56_mt	1014	0	1	.	.	.	.	.	.	.	.	.	.	.	.	.	.	
56_mt	193.27	10	7	4	89	space	2.418850012	cr	FALSE	56_mt	FALSE	Utility_Vehicles	131.18	5	23	NA	NA	2418.850012
56_mt	497	1	1	.	.	.	.	.	.	.	.	.	.	.	.	.	.	
56_mt	207.25	8	4	4	182	space	1.902719643	cr	FALSE	56_mt	FALSE	Utility_Vehicles	137.06	5	24	NA	NA	1902.719643
56_mt	1014	0	1	.	.	.	.	.	.	.	.	.	.	.	.	.	.	
56_mt	187.33	11	7	4	261	space	2.601399501	cr	FALSE	56_mt	FALSE	Utility_Vehicles	142.42	5	25	0	27.72	2601.399501
56_mt	1012	0	1	.	.	.	.	.	.	.	.	.	.	.	.	.	.	
56_mt	229.33	11	6	4	40	space	3.001084998	cr	FALSE	56_mt	FALSE	Utility_Vehicles	149.78	5	26	NA	NA	3001.084998
56_mt	964	1	1	.	.	.	.	.	.	.	.	.	.	.	.	.	.	
56_mt	218	7	4	4	228	return	1.751536867	fa	FALSE	56_mt	FALSE	Utility_Vehicles	156.43	5	27	NA	NA	1751.536867
56_mt	446	2	1	.	.	.	.	.	.	.	.	.	.	.	.	.	.	
56_mt	171.25	8	5	4	7	space	1.635863957	cr	FALSE	56_mt	FALSE	Utility_Vehicles	161.65	5	28	0	17.06	1635.863957
56_mt	499	1	1	.	.	.	.	.	.	.	.	.	.	.	.	.	.	
56_mt	180.8	4	3	4	146	return	0.95879206	fa	FALSE	56_mt	FALSE	Utility_Vehicles	167.87	5	29	NA	NA	958.7920598
56_mt	328	2	1	.	.	.	.	.	.	.	.	.	.	.	.	.	.	
56_mt	143.83	12	6	4	29	space	2.12222212	cr	FALSE	56_mt	FALSE	Utility_Vehicles	172.36	5	30	NA	NA	2122.22212
56_mt	1008	0	1	.	.	.	.	.	.	.	.	.	.	.	.	.	.	
56_mt	142.22	8	5	4	147	space	1.684786015	mi	FALSE	56_mt	TRUE	Utility_Vehicles	178.06	5	31	NA	NA	1684.786015
56_mt	500	1	1	.	.	.	.	.	.	.	.	.	.	.	.	.	.	
56_mt	157.11	10	3	4	52	space	1.856021832	cr	FALSE	56_mt	FALSE	Utility_Vehicles	183.27	5	32	1	20.71	1856.021832
56_mt	209	3	1	.	.	.	.	.	.	.	.	.	.	.	.	.	.	
56_mt	142	9	5	4	24	return	1.868259586	hi	FALSE	56_mt	TRUE	Utility_Vehicles	193.29	5	33	NA	NA	1868.259586
56_mt	926	1	1	.	.	.	.	.	.	.	.	.	.	.	.	.	.	
56_mt	195.5	15	8	4	180	space	3.619411938	cr	FALSE	56_mt	FALSE	Utility_Vehicles	198.6	5	34	NA	NA	3619.411938
56_mt	241	3	1	.	.	.	.	.	.	.	.	.	.	.	.	.	.	
56_mt	197	11	6	4	181	space	2.723144735	cr	FALSE	56_mt	FALSE	Utility_Vehicles	205.88	5	35	0	21.86	2723.144735
56_mt	252	2	1	.	.	.	.	.	.	.	.	.	.	.	.	.	.	
56_mt	189.2	9	8	4	265	space	2.22333516	cr	FALSE	56_mt	FALSE	Utility_Vehicles	213.29	5	36	NA	NA	2223.33516
56_mt	924	1	1	.	.	.	.	.	.	.	.	.	.	.	.	.	.	
56_mt	158.67	11	8	4	118	space	2.268541099	cr	FALSE	56_mt	FALSE	Utility_Vehicles	218.93	5	37	NA	NA	2268.541099
56_mt	268	2	1	.	.	.	.	.	.	.	.	.	.	.	.	.	.	
56_mt	272.67	5	5	4	266	space	1.772613691	cr	FALSE	56_mt	FALSE	Utility_Vehicles	224.63	5	38	0	16.62	1772.613691
56_mt	385	2	1	.	.	.	.	.	.	.	.	.	.	.	.	.	.	
56_mt	173.4	9	5	4	84	space	2.110722239	cr	FALSE	56_mt	FALSE	Utility_Vehicles	232.64	5	39	NA	NA	2110.722239
56_mt	766	0	1	.	.	.	.	.	.	.	.	.	.	.	.	.	.	
56_mt	200.6	9	7	4	274	space	2.285021343	cr	FALSE	56_mt	FALSE	Utility_Vehicles	238.17	5	40	NA	NA	2285.021343
56_mt	1014	0	1	.	.	.	.	.	.	.	.	.	.	.	.	.	.	
56_mt	179.78	9	7	4	299	space	1.932469489	cr	FALSE	56_mt	FALSE	Utility_Vehicles	243.9	5	41	NA	NA	1932.469489
56_mt	1010	0	1	.	.	.	.	.	.	.	.	.	.	.	.	.	.	
56_mt	229.17	11	7	4	108	space	3.214150796	cr	FALSE	56_mt	FALSE	Utility_Vehicles	249.27	5	42	NA	NA	3214.150796
56_mt	258.67	2	1	.	.	.	.	.	.	.	.	.	.	.	.	.	.	
56_mt	202.91	10	6	4	14	space	2.518752692	cr	FALSE	56_mt	FALSE	Utility_Vehicles	255.93	5	43	0	30.88	2518.752692
56_mt	1012	0	1	.	.	.	.	.	.	.	.	.	.	.	.	.	.	
56_mt	167.64	10	8	4	278	space	2.157557874	cr	FALSE	56_mt	FALSE	Utility_Vehicles	263.49	5	44	NA	NA	2157.557874
56_mt	316.67	3	1	.	.	.	.	.	.	.	.	.	.	.	.	.	.	
56_mt	171.64	10	8	4	79	space	2.201808208	cr	FALSE	56_mt	FALSE	Utility_Vehicles	269.1	5	45	NA	NA	2201.808208
56_mt	189	3	1	.	.	.	.	.	.	.	.	.	.	.	.	.	.	
56_mt	259	7	4	4	255	return	2.285242008	fa	FALSE	56_mt	FALSE	Utility_Vehicles	274.74	5	46	NA	NA	2285.242008
56_mt	1000	0	1	.	.	.	.	.	.	.	.	.	.	.	.	.	.	
56_mt	246.8	10	8	4	172	return	2.846500972	fa	TRUE	56_mt	TRUE	Utility_Vehicles	280.58	5	47	NA	NA	2846.500972
56_mt	326	2	1	.	.	.	.	.	.	.	.	.	.	.	.	.	.	
56_mt	194.4	15	10	4	100	space	3.388034962	cr	FALSE	56_mt	FALSE	Utility_Vehicles	286.86	5	48	0	30.55	3388.034962
56_mt	988	1	1	.	.	.	.	.	.	.	.	.	.	.	.	.	.	
56_mt	216.4	10	6	4	284	space	2.581333631	cr	FALSE	56_mt	FALSE	Utility_Vehicles	294.77	5	49	NA	NA	2581.333631
56_mt	243.5	3	1	.	.	.	.	.	.	.	.	.	.	.	.	.	.	
56_mt	192.5	15	9	4	10	space	3.531853679	cr	FALSE	56_mt	FALSE	Utility_Vehicles	300.79	5	50	NA	NA	3531.853679
56_mt	330	2	1	.	.	.	.	.	.	.	.	.	.	.	.	.	.	
56_mt	172.36	10	7	4	222	space	2.185143222	mi	FALSE	56_mt	TRUE	Utility_Vehicles	307.76	5	51	0	18.64	2185.143222
56_mt	329.33	2	1	.	.	.	.	.	.	.	.	.	.	.	.	.	.	
56_mt	228	15	9	4	212	space	3.835701208	cr	FALSE	56_mt	FALSE	Utility_Vehicles	314.55	5	52	NA	NA	3835.701208
56_mt	327.33	2	1	.	.	.	.	.	.	.	.	.	.	.	.	.	.	
56_mt	254	8	5	4	171	space	2.53204392	cr	FALSE	56_mt	FALSE	Utility_Vehicles	321.84	5	53	NA	NA	2532.04392
56_mt	251.33	2	1	.	.	.	.	.	.	.	.	.	.	.	.	.	.	
56_mt	246.29	6	4	4	215	space	1.90660621	cr	FALSE	56_mt	FALSE	Utility_Vehicles	327.81	5	54	NA	NA	1906.60621
56_mt	245	3	1	.	.	.	.	.	.	.	.	.	.	.	.	.	.	
56_mt	208.5	11	8	4	199	space	2.842118826	cr	FALSE	56_mt	FALSE	Utility_Vehicles	333.17	5	55	0	24.95	2842.118826
56_mt	182.5	3	1	.	.	.	.	.	.	.	.	.	.	.	.	.	.	
56_mt	281	7	5	4	36	space	2.518763689	cr	FALSE	56_mt	FALSE	Utility_Vehicles	340.4	5	56	NA	NA	2518.763689
56_mt	928	1	1	.	.	.	.	.	.	.	.	.	.	.	.	.	.	
56_mt	243.8	9	6	4	238	space	2.75598646	cr	FALSE	56_mt	FALSE	Utility_Vehicles	346.36	5	57	NA	NA	2755.98646
56_mt	239	3	1	.	.	.	.	.	.	.	.	.	.	.	.	.	.	
56_mt	278	5	4	4	122	return	1.772225878	fa	FALSE	56_mt	FALSE	Utility_Vehicles	352.58	5	58	0	17.42	1772.225878
56_mt	326.67	2	1	.	.	.	.	.	.	.	.	.	.	.	.	.	.	
56_mt	294.57	6	6	4	106	space	2.276939205	cr	FALSE	56_mt	FALSE	Utility_Vehicles	358.84	5	59	NA	NA	2276.939205
56_mt	1012	0	1	.	.	.	.	.	.	.	.	.	.	.	.	.	.	
56_mt	252.25	7	4	4	141	return	2.239538289	hi	FALSE	56_mt	TRUE	Utility_Vehicles	364.58	5	60	NA	NA	2239.538289
56_mt	239.5	3	1	.	.	.	.	.	.	.	.	.	.	.	.	.	.	
56_mt	206.67	11	9	4	124	space	2.806621422	cr	FALSE	56_mt	FALSE	Utility_Vehicles	370.27	5	61	NA	NA	2806.621422
56_mt	501	1	1	.	.	.	.	.	.	.	.	.	.	.	.	.	.	
56_mt	160.33	5	4	4	211	return	1.138206784	fa	TRUE	56_mt	TRUE	Utility_Vehicles	378.59	5	62	0	24.33	1138.206784
56_mt	402	1	1	.	.	.	.	.	.	.	.	.	.	.	.	.	.	
56_mt	156.36	10	6	4	267	space	2.039574578	cr	FALSE	56_mt	FALSE	Utility_Vehicles	390.33	5	63	NA	NA	2039.574578
56_mt	389	1	1	.	.	.	.	.	.	.	.	.	.	.	.	.	.	
56_mt	183.83	11	7	4	38	space	2.939854075	cr	FALSE	56_mt	FALSE	Utility_Vehicles	396.04	5	64	NA	NA	2939.854075
56_mt	403	1	1	.	.	.	.	.	.	.	.	.	.	.	.	.	.	
56_mt	188.73	10	6	4	81	space	2.591654677	mi	FALSE	56_mt	TRUE	Utility_Vehicles	402.44	5	65	0	24.41	2591.654677
56_mt	321.33	3	1	.	.	.	.	.	.	.	.	.	.	.	.	.	.	
56_mt	237.8	9	5	4	46	space	2.638309236	cr	FALSE	56_mt	FALSE	Utility_Vehicles	410.19	5	66	NA	NA	2638.309236
56_mt	504	1	1	.	.	.	.	.	.	.	.	.	.	.	.	.	.	
56_mt	230.86	6	5	4	276	space	1.940750298	cr	FALSE	56_mt	FALSE	Utility_Vehicles	416.27	5	67	NA	NA	1940.750298
56_mt	500	1	1	.	.	.	.	.	.	.	.	.	.	.	.	.	.	
56_mt	196.31	12	7	4	138	space	3.002467638	cr	FALSE	56_mt	FALSE	Utility_Vehicles	421.87	5	68	NA	NA	3002.467638
56_mt	498	1	1	.	.	.	.	.	.	.	.	.	.	.	.	.	.	
56_mt	186.4	10	7	4	167	space	2.251886009	cr	FALSE	56_mt	FALSE	Utility_Vehicles	428.43	5	69	NA	NA	2251.886009
56_mt	384	1	1	.	.	.	.	.	.	.	.	.	.	.	.	.	.	
56_mt	208.67	9	7	4	51	space	2.163955698	cr	FALSE	56_mt	FALSE	Utility_Vehicles	439.07	5	70	0	35.01	2163.955698
56_mt	173.5	4	1	.	.	.	.	.	.	.	.	.	.	.	.	.	.	
56_mt	181.33	11	7	4	76	space	2.573070783	cr	FALSE	56_mt	FALSE	Utility_Vehicles	445.69	5	71	NA	NA	2573.070783
56_mt	237.5	4	1	.	.	.	.	.	.	.	.	.	.	.	.	.	.	
56_mt	302.8	4	4	4	27	return	1.588684861	hi	FALSE	56_mt	TRUE	Utility_Vehicles	451.69	5	72	NA	NA	1588.684861
56_mt	332	2	1	.	.	.	.	.	.	.	.	.	.	.	.	.	.	
56_mt	197.45	10	6	4	273	return	2.55660007	fa	TRUE	56_mt	TRUE	Utility_Vehicles	457.12	5	73	NA	NA	2556.60007
56_mt	188.8	4	1	.	.	.	.	.	.	.	.	.	.	.	.	.	.	
